"subNo"	"index"	"block"	"level"	"mean"	"periodicity"	"nEvents"	"answer"	"isCorrect"	"rt"	"s1"	"s2"	"s3"	"s4"	"s5"	"s6"	"s7"	"s8"	"s9"	"s10"	"s11"	"s12"	"s13"	"s14"	"s15"	"s16"	"s17"	"s18"	"s19"	"s20"	"t1"	"t2"	"t3"	"t4"	"t5"	"t6"	"t7"	"t8"	"t9"	"t10"	"t11"	"t12"	"t13"	"t14"	"t15"	"t16"	"t17"	"t18"	"t19"	"seqDuration"	"startInterval"	"trialDuration"	"pID"	"Trial"	"rtLog"	"right"	"left"
"1"	8	18	1	0	0	1	12	1	1	3.797	-0.1881	1.3049	-8.6235	-1.5441	7.0093	-0.5449	4.8635	-3.6603	-6.2526	3.9655	-5.4132	-0.7627	-2.7207	0.1439	1.7348	-7.5447	12.1877	-1.6282	3.5722	3.4835	0.333	0.333	0.333	0.333	0.333	0.333	0.333	0.333	0.333	0.333	0.333	0.333	0.333	0.333	0.333	0.333	0.333	0.333	0.333	6.327	1.6711	5.4647	8	1	1.33421128124967	1	0
"2"	8	53	1	0	0	0	13	-1	1	4.342	2.8128	-10.1743	-2.1106	6.662	-6.043	-4.4266	5.7444	4.9718	7.788	-2.4442	-2.1938	-0.1956	6.4303	2.7877	-2.8169	2.3058	-3.0636	-7.8838	1.608	-0.1238	0.3455	0.2321	0.3806	0.3549	0.4266	0.2799	0.2442	0.2982	0.374	0.2045	0.4509	0.4191	0.3322	0.2205	0.3679	0.4705	0.2021	0.4679	0.2489	6.3207	1.5403	5.8764	8	2	1.4683350714561	0	1
"3"	8	45	1	-1	-1.1	1	5	-1	1	1.479	-0.0928	-4.7822	1.8703	1.3025	4.2066	-1.0436	2.506	7.861	-1.3924	-11.8505	-10.0017	-9.5996	-1.5454	3.6502	-2.1437	-2.444	3.5937	2.0909	-3.9172	-0.9485	0.333	0.333	0.333	0.333	0.333	0.333	0.333	0.333	0.333	0.333	0.333	0.333	0.333	0.333	0.333	0.333	0.333	0.333	0.333	6.327	1.4419	2.9299	8	3	0.391366183728663	0	1
"4"	8	51	1	-2	-2.2	0	10	1	0	2.879	-2.1373	-5.9876	-2.4187	-1.3535	7.9196	2.7802	-6.687	2.9833	-7.9698	2.5954	-5.8343	-4.6822	-5.4288	-9.4477	-6.9487	8.1472	-5.0862	-1.217	-0.4248	-2.1633	0.2417	0.5118	0.2196	0.3186	0.3466	0.2777	0.2497	0.3508	0.296	0.3277	0.4591	0.3528	0.2339	0.4629	0.4155	0.2726	0.3202	0.4365	0.2367	6.3304	1.6288	4.5301	8	4	1.05744301163004	1	0
"5"	8	46	1	0	0	1	15	1	1	4.989	2.0991	4.3464	-10.746	2.0325	0.3419	5.7065	-7.5036	6.2089	-2.5465	1.6249	7.9509	-3.8675	1.0197	-1.4577	9.2438	-2.39	-2.4524	-1.5193	-5.6959	-0.7376	0.333	0.333	0.333	0.333	0.333	0.333	0.333	0.333	0.333	0.333	0.333	0.333	0.333	0.333	0.333	0.333	0.333	0.333	0.333	6.327	1.5213	6.5229	8	5	1.6072354888789	1	0
"6"	8	39	1	0	0	0	8	-1	0	2.181	0.0339	4.9011	-4.99	-2.0977	2.8195	-9.0859	-6.9591	-4.3731	3.7549	2.5399	5.9214	3.5686	-4.7263	12.5941	1.2108	-0.0461	-2.2113	-2.1921	-2.4005	2.3049	0.2254	0.4202	0.2211	0.29	0.3411	0.2675	0.4117	0.2371	0.4569	0.2895	0.2018	0.2929	0.5179	0.2417	0.2786	0.3114	0.3603	0.5191	0.4457	6.3299	1.5352	3.7319	8	6	0.779783487219492	0	1
"7"	8	31	1	-1	-1.1	1	14	-1	1	4.423	-2.9425	-8.8943	2.8356	-3.611	2.0197	-9.747	-2.6704	-1.5306	-3.3226	8.1293	4.1101	1.1774	1.6867	-3.7829	1.5913	-1.2932	-2.9068	5.9799	2.0246	-11.7197	0.333	0.333	0.333	0.333	0.333	0.333	0.333	0.333	0.333	0.333	0.333	0.333	0.333	0.333	0.333	0.333	0.333	0.333	0.333	6.327	1.7112	6.1406	8	7	1.48681819888619	0	1
"8"	8	44	1	-2	-2.2	1	9	1	0	2.693	1.1706	-10.8816	-4.5476	6.2995	-6.3812	-1.4342	2.9614	-0.6571	2.3845	-7.7597	4.6187	-0.9076	3.1742	-6.4704	-10.2709	-2.7669	-2.5508	2.5582	-8.0997	-4.5781	0.333	0.333	0.333	0.333	0.333	0.333	0.333	0.333	0.333	0.333	0.333	0.333	0.333	0.333	0.333	0.333	0.333	0.333	0.333	6.327	1.7189	4.427	8	8	0.990655813829462	1	0
"9"	8	48	1	2	2.2	1	15	-1	0	4.847	7.0325	-6.3807	-4.3516	0.5813	9.9735	7.7393	-0.9656	2.9117	-0.3647	-0.8217	7.3175	-5.4498	-0.0913	0.9249	5.6301	11.7034	2.976	3.0894	0.8189	2.6728	0.333	0.333	0.333	0.333	0.333	0.333	0.333	0.333	0.333	0.333	0.333	0.333	0.333	0.333	0.333	0.333	0.333	0.333	0.333	6.327	1.5557	6.4148	8	9	1.57835995686324	0	1
"10"	8	54	1	1	1.1	0	11	1	1	3.565	0.4117	3.9779	4.0858	-8.464	3.9653	-5.7577	1.7427	1.4818	0.6953	-2.7993	9.149	7.6844	7.4063	-0.3401	-0.8524	2.1987	1.4767	-10.569	5.5197	1.2343	0.4075	0.5101	0.2137	0.3244	0.405	0.4417	0.2133	0.2904	0.3274	0.2608	0.4666	0.4134	0.2094	0.349	0.2075	0.2726	0.4492	0.2248	0.3397	6.3265	1.6445	5.2156	8	10	1.27116405386626	1	0
"11"	8	52	1	-1	-1.1	0	11	1	0	3.336	0.8639	-1.7096	-0.7032	-4.2871	3.8944	4.1533	-10.8336	-5.4284	2.271	2.7582	-4.6026	0.8949	1.4845	2.566	4.3502	-3.2916	4.7784	-4.5915	-1.553	-13.2989	0.2637	0.5041	0.2033	0.5067	0.4318	0.2402	0.2141	0.3563	0.237	0.3718	0.3376	0.2052	0.4389	0.314	0.357	0.3207	0.2321	0.3243	0.4603	6.319	1.6737	5.0198	8	11	1.2047724844965	1	0
"12"	8	3	1	-1	-1.1	1	8	-1	1	2.397	0.202	9.6442	0.4108	-4.3165	-6.1547	-5.0162	-5.5426	1.8557	8.7384	1.021	-5.3032	-1.9523	3.0595	-9.0845	5.266	-4.6647	-1.8856	-3.4851	-3.2428	-2.6212	0.333	0.333	0.333	0.333	0.333	0.333	0.333	0.333	0.333	0.333	0.333	0.333	0.333	0.333	0.333	0.333	0.333	0.333	0.333	6.327	1.4694	3.8643	8	12	0.874217955452247	0	1
"13"	8	63	1	4	4.4	1	14	1	1	4.398	2.2156	4.383	0.0436	8.3157	10.6443	-1.6094	3.0814	7.3801	13.1643	2.621	9.4888	0.5696	9.4418	6.7603	-5.7897	1.1077	8.1096	1.0471	-1.018	10.0054	0.333	0.333	0.333	0.333	0.333	0.333	0.333	0.333	0.333	0.333	0.333	0.333	0.333	0.333	0.333	0.333	0.333	0.333	0.333	6.327	1.7241	6.1324	8	13	1.48114989213257	1	0
"14"	8	61	1	1	1.1	1	10	-1	0	3.187	4.9055	2.0316	2.201	3.5372	-4.9571	0.5018	-9.8351	-3.7808	3.0222	-4.8694	2.8895	-2.7272	7.5069	1.5835	-0.1789	0.6097	9.0063	6.0095	-4.2768	7.8603	0.333	0.333	0.333	0.333	0.333	0.333	0.333	0.333	0.333	0.333	0.333	0.333	0.333	0.333	0.333	0.333	0.333	0.333	0.333	6.327	1.5533	4.7543	8	14	1.1590800354352	0	1
"15"	8	27	1	2	2.2	0	13	1	1	4.546	3.7854	10.0029	11.6597	3.9293	2.5148	-2.3965	-5.5159	1.8916	-1.1045	4.4717	-2.0645	1.8833	6.4079	3.8777	1.134	-6.1984	6.537	-5.6913	7.8226	2.1063	0.2218	0.2975	0.4697	0.2138	0.4636	0.2003	0.2539	0.4985	0.4563	0.2921	0.5203	0.4542	0.2463	0.2013	0.498	0.2025	0.2338	0.4034	0.2028	6.3303	1.4706	6.0296	8	15	1.51424772543035	1	0
"16"	8	57	1	-4	-4.4	1	5	-1	1	1.626	-7.4193	-3.9036	-2.7749	-1.4851	-2.399	-4.6714	-1.0967	3.0256	0.0972	-21.5288	-7.715	-2.0914	-0.6765	-2.931	-6.5602	-3.2815	-2.2887	-6.1801	-6.9911	-5.503	0.333	0.333	0.333	0.333	0.333	0.333	0.333	0.333	0.333	0.333	0.333	0.333	0.333	0.333	0.333	0.333	0.333	0.333	0.333	6.327	1.6824	3.3273	8	16	0.486123011125619	0	1
"17"	8	59	1	-1	-1.1	1	12	1	0	3.674	1.4009	-5.6497	3.548	9.1416	0.1546	2.4029	1.8997	-2.4224	-3.8086	3.5526	-6.5449	-6.9821	-3.619	-8.9438	-0.1167	-4.6058	-2.1992	-8.3784	5.8678	4.1138	0.333	0.333	0.333	0.333	0.333	0.333	0.333	0.333	0.333	0.333	0.333	0.333	0.333	0.333	0.333	0.333	0.333	0.333	0.333	6.327	1.4635	5.1412	8	17	1.30128098679293	1	0
"18"	8	32	1	0	0	1	11	-1	1	3.525	0.7026	-8.422	7.1879	-6.1888	-0.7324	1.111	-2.1352	-0.1956	6.9723	8.1129	-4.5039	4.6523	-7.3527	-4.6172	-2.8878	6.117	4.0182	-0.5118	-2.0518	0.2679	0.333	0.333	0.333	0.333	0.333	0.333	0.333	0.333	0.333	0.333	0.333	0.333	0.333	0.333	0.333	0.333	0.333	0.333	0.333	6.327	1.7128	5.2421	8	18	1.25988043626423	0	1
"19"	8	28	1	4	4.4	0	9	1	1	2.778	6.1796	3.4537	11.3905	2.8012	7.2848	8.0543	8.817	6.6473	-1.1076	14.7288	3.3813	-2.3261	5.0249	2.8099	-4.6462	-1.5927	3.4591	7.8103	-2.8337	8.2155	0.2828	0.4515	0.2141	0.3051	0.3504	0.4033	0.4587	0.249	0.4609	0.2897	0.2423	0.2132	0.3401	0.4706	0.2497	0.4603	0.3807	0.2889	0.2226	6.3341	1.4294	4.2117	8	19	1.02173124433215	1	0
"20"	8	67	1	0	0	0	15	-1	0	4.622	0.2974	-2.9388	-1.99	4.2014	-4.7714	-5.6445	5.1045	1.4168	-2.2588	5.1415	-5.0361	-9.3274	-4.3863	0.632	4.2994	6.6955	5.1674	7.9192	-5.5145	2.0989	0.2238	0.3167	0.4435	0.2406	0.4921	0.2466	0.4515	0.3047	0.2542	0.2237	0.457	0.2779	0.2215	0.2819	0.4739	0.222	0.4038	0.5174	0.279	6.3315	1.506	6.1389	8	20	1.53082751185219	0	1
"21"	8	4	1	0	0	1	16	-1	1	5.32	1.7732	0.0112	-2.4628	-6.0081	-0.4841	0.8874	6.6725	-0.7391	2.4563	-7.8625	-7.4392	0.6597	13.1269	5.9809	2.8565	2.0908	-5.9299	-1.4202	0.4936	-4.3477	0.333	0.333	0.333	0.333	0.333	0.333	0.333	0.333	0.333	0.333	0.333	0.333	0.333	0.333	0.333	0.333	0.333	0.333	0.333	6.327	1.5652	6.8873	8	21	1.67147330335355	0	1
"22"	8	56	1	4	4.4	0	12	1	1	3.697	-0.5984	4.6468	12.8107	-0.9901	-4.7	2.3506	6.3112	4.7568	7.5754	12.122	2.0625	6.9248	3.2291	3.0693	-2.9994	3.9396	11.8523	-1.2534	7.735	7.6968	0.3492	0.4163	0.2824	0.4261	0.3149	0.4108	0.2019	0.24	0.397	0.2402	0.3605	0.2568	0.5275	0.4101	0.2984	0.3633	0.3351	0.2796	0.2197	6.3297	1.4056	5.1144	8	22	1.30752167995449	1	0
"23"	8	14	1	4	4.4	0	14	1	1	4.542	3.6095	-4.7483	-1.4564	1.5713	3.5353	1.4213	4.1511	0.7992	4.0415	5.6079	4.2809	7.8159	-1.2997	10.0093	11.5508	11.2258	12.841	4.2067	10.1687	-3.0804	0.2784	0.3462	0.2858	0.3938	0.4775	0.4112	0.2923	0.2092	0.3033	0.3906	0.29	0.3826	0.4564	0.2365	0.4305	0.2924	0.2392	0.4028	0.2136	6.3324	1.7294	6.293	8	23	1.51336744368337	1	0
"24"	8	25	1	0	0	0	15	1	1	4.623	3.5566	5.5115	-10.0877	-3.3206	0.7455	-2.2315	-2.737	5.6767	-5.2306	3.5386	6.017	-0.4445	1.5741	-1.8944	8.7122	-0.6837	2.5126	-4.1812	0.5005	-9.1367	0.372	0.2889	0.2002	0.312	0.2384	0.326	0.2768	0.3812	0.2379	0.3055	0.4239	0.2279	0.274	0.4691	0.3195	0.377	0.5196	0.3389	0.4409	6.3297	1.4192	6.0575	8	24	1.53104384500609	1	0
"25"	8	16	1	-2	-2.2	1	9	-1	1	2.992	0.3681	-5.8936	-0.2611	-1.3224	-10.3599	7.2038	-1.0206	-4.7297	-2.4295	-4.4208	7.5201	-4.6976	-7.427	-6.0164	4.9289	-7.6646	-0.2261	-7.2531	3.1852	-4.9091	0.333	0.333	0.333	0.333	0.333	0.333	0.333	0.333	0.333	0.333	0.333	0.333	0.333	0.333	0.333	0.333	0.333	0.333	0.333	6.327	1.5154	4.5259	8	25	1.09594206011223	0	1
"26"	8	24	1	-1	-1.1	0	15	-1	1	4.587	1.7719	-5.9759	-1.8299	-2.0771	-11.5603	7.4998	-0.5007	-0.4677	-0.4907	-1.375	4.3755	-8.8767	-3.7707	1.996	2.9502	-8.0769	-1.1447	6.3179	4.1493	-4.5885	0.4515	0.2867	0.4154	0.2962	0.3669	0.2745	0.2355	0.317	0.3801	0.3104	0.2338	0.4323	0.3662	0.2111	0.3748	0.2683	0.3139	0.4716	0.3224	6.3287	1.4696	6.0708	8	26	1.52322621561503	0	1
"27"	8	38	1	-1	-1.1	0	6	1	0	1.782	0.4944	5.6462	2.4294	-7.5538	-1.2158	-7.5613	-0.7829	-9.2161	-3.1378	1.4612	8.7916	-4.345	7.992	-1.477	-0.9808	-2.7631	-7.6946	-1.3347	2.0995	-3.3334	0.2393	0.5121	0.2051	0.2786	0.5021	0.2816	0.4451	0.2359	0.2693	0.3445	0.4152	0.2504	0.3948	0.2832	0.331	0.4153	0.372	0.2002	0.3443	6.32	1.6674	3.4497	8	27	0.577736329048618	1	0
"28"	8	29	1	-4	-4.4	1	9	-1	1	2.78	-3.5538	-1.9378	-4.0785	0.9498	0.6674	-13.2869	0.2856	-5.3202	-1.6139	-15.4237	-11.9205	-11.7508	-0.4409	1.4114	-5.9416	-0.8413	-2.8981	-2.587	-4.6993	-3.4234	0.333	0.333	0.333	0.333	0.333	0.333	0.333	0.333	0.333	0.333	0.333	0.333	0.333	0.333	0.333	0.333	0.333	0.333	0.333	6.327	1.5904	4.3813	8	28	1.02245092770255	0	1
"29"	8	13	1	2	2.2	0	7	1	1	2.441	5.7894	-0.1688	10.7581	0.4136	9.0958	-2.8157	3.0843	0.8326	-1.4081	6.8285	-7.5952	-1.9115	-0.8986	-0.7728	4.749	10.1032	-2.8841	1.7434	1.1357	9.2189	0.376	0.2233	0.2601	0.3754	0.3184	0.3927	0.5269	0.2373	0.2793	0.3826	0.2222	0.3492	0.2728	0.3501	0.5017	0.2414	0.2154	0.302	0.5	6.3267	1.5543	3.9914	8	29	0.892407791410823	1	0
"30"	8	11	1	0	0	0	10	-1	1	3.109	-0.5837	9.3325	-4.8924	-6.1765	1.638	9.4271	-3.8722	0.0836	1.4868	-1.7404	1.3347	1.6485	-2.3449	-0.5408	-6.3261	9.6643	-6.935	-0.1712	-1.6007	2.1236	0.3953	0.2489	0.2991	0.5289	0.2757	0.2466	0.3164	0.2689	0.5199	0.2652	0.4693	0.3142	0.2454	0.3407	0.2503	0.2213	0.5203	0.2794	0.3296	6.3354	1.7246	4.8426	8	30	1.13430113107662	0	1
"31"	8	58	1	-2	-2.2	1	6	-1	1	1.725	0.3982	0.4313	-6.7496	-5.2048	-7.6643	0.3167	-6.6432	4.6406	-2.9867	1.6463	-11.8952	-7.6605	-8.9398	-1.8706	-3.6296	2.6196	0.36	2.1414	-1.2559	8.0886	0.333	0.333	0.333	0.333	0.333	0.333	0.333	0.333	0.333	0.333	0.333	0.333	0.333	0.333	0.333	0.333	0.333	0.333	0.333	6.327	1.5808	3.3086	8	31	0.545227050483323	0	1
"32"	8	2	1	-2	-2.2	1	6	-1	1	1.815	-0.737	-9.5611	-4.1488	-3.5494	0.624	2.7158	-12.1704	-12.9023	-1.9739	-0.8674	4.2761	6.089	-2.9386	-5.1605	-0.2724	-4.6357	2.1966	-0.661	2.0391	-1.6833	0.333	0.333	0.333	0.333	0.333	0.333	0.333	0.333	0.333	0.333	0.333	0.333	0.333	0.333	0.333	0.333	0.333	0.333	0.333	6.327	1.4149	3.2492	8	32	0.596085467716814	0	1
"33"	8	47	1	1	1.1	1	12	-1	0	3.673	-2.4298	-4.3892	2.2286	10.115	-3.2854	-4.2886	-1e-04	-0.7805	0.373	2.569	4.8015	-5.1378	5.917	-2.8009	3.7289	10.0213	9.8429	-4.9518	-3.2009	3.1231	0.333	0.333	0.333	0.333	0.333	0.333	0.333	0.333	0.333	0.333	0.333	0.333	0.333	0.333	0.333	0.333	0.333	0.333	0.333	6.327	1.6681	5.3572	8	33	1.30100876683753	0	1
"34"	8	23	1	-2	-2.2	0	12	1	0	4.06	0.8253	-6.1117	1.1807	2.805	-8.4249	-3.6376	-9.4065	9.2865	0.3788	-3.2215	-3.1787	-3.1931	-0.1858	5.7434	0.6534	-7.3336	-0.5026	-7.6534	-6.8192	-4.5354	0.3928	0.2937	0.4213	0.512	0.2236	0.4538	0.276	0.3213	0.2615	0.2015	0.2905	0.5172	0.3102	0.5075	0.2793	0.3071	0.224	0.2824	0.2546	6.3302	1.6623	5.7442	8	34	1.40118297361364	1	0
"35"	8	60	1	0	0	1	8	-1	1	2.558	-1.7789	0.9332	-0.5647	-8.6046	11.1758	0.3346	0.8596	-4.6211	1.3547	0.2451	-4.1255	-7.4613	6.6763	0.9921	-4.4527	4.6059	-1.8359	-5.2677	4.4971	6.7696	0.333	0.333	0.333	0.333	0.333	0.333	0.333	0.333	0.333	0.333	0.333	0.333	0.333	0.333	0.333	0.333	0.333	0.333	0.333	6.327	1.4366	4.0088	8	35	0.939225703156651	0	1
"36"	8	50	1	-4	-4.4	0	18	1	0	5.66	-3.7592	-2.5317	-3.5731	-0.0046	-8.3168	-5.263	-1.4559	-9.4888	4.6286	-11.7074	-5.1099	-3.4792	-6.0547	1.5316	-4.9172	-13.5246	-1.965	-3.2515	2.9652	-13.8279	0.2914	0.3331	0.4528	0.3431	0.2399	0.4824	0.4075	0.2108	0.4144	0.5	0.257	0.3445	0.228	0.3144	0.3853	0.2436	0.2036	0.3931	0.287	6.332	1.546	7.2106	8	36	1.73342389221509	1	0
"37"	8	21	1	4	4.4	1	11	1	1	3.556	6.6343	-4.2023	-2.5729	1.9672	4.0431	8.4209	0.3627	3.1911	9.9831	6.7898	13.0451	-3.6985	5.6266	8.0009	12.2999	5.6918	3.197	-0.4157	9.4853	0.5926	0.333	0.333	0.333	0.333	0.333	0.333	0.333	0.333	0.333	0.333	0.333	0.333	0.333	0.333	0.333	0.333	0.333	0.333	0.333	6.327	1.6224	5.1899	8	37	1.26863631765166	1	0
"38"	8	41	1	2	2.2	0	10	1	1	3.56	7.1824	1.5444	1.941	0.534	0.1783	-2.2295	6.4398	3.1877	-4.6319	-2.7979	4.3346	11.0563	7.0606	8.7572	-0.5231	4.964	-5.4771	-4.6072	7.7418	-1.7506	0.2452	0.5022	0.5318	0.2561	0.3864	0.3189	0.4309	0.372	0.2078	0.3462	0.3778	0.2357	0.4068	0.2938	0.2113	0.3299	0.4121	0.2138	0.2536	6.3322	1.4798	5.0439	8	38	1.26976054486394	1	0
"39"	8	5	1	1	1.1	1	10	-1	0	3.149	-0.4817	-2.8899	10.4325	-0.1529	2.4436	2.6356	-3.3945	-10.1666	1.0386	4.2774	-5.9953	-0.3467	11.3207	1.8047	8.3669	0.2806	1.792	2.8203	-0.8639	-1.4225	0.333	0.333	0.333	0.333	0.333	0.333	0.333	0.333	0.333	0.333	0.333	0.333	0.333	0.333	0.333	0.333	0.333	0.333	0.333	6.327	1.6943	4.85	8	39	1.14708494211889	0	1
"40"	8	65	1	-2	-2.2	0	11	-1	1	3.55	-3.7698	-5.0952	-3.8649	1.3204	-5.4643	7.1983	-2.0678	-8.6282	-9.1403	-0.6963	-5.3288	-0.6726	-1.8266	4.2566	6.4463	-1.4181	-9.7461	1.5208	-9.5182	2.2797	0.4282	0.2603	0.3517	0.5014	0.3154	0.2038	0.4656	0.2091	0.2701	0.3275	0.4767	0.3281	0.2035	0.4262	0.5102	0.2909	0.2309	0.2922	0.2269	6.3186	1.5147	5.0669	8	40	1.26694760348732	0	1
"41"	8	43	1	-4	-4.4	1	15	1	0	4.974	-5.7673	2.0298	-2.2673	-9.3194	-5.6609	-13.041	-0.2077	-2.9194	-1.9425	-12.005	4.7821	-10.2711	1.8044	-6.3537	-1.8317	-4.7992	-1.7358	-5.3591	-12.1024	-1.8864	0.333	0.333	0.333	0.333	0.333	0.333	0.333	0.333	0.333	0.333	0.333	0.333	0.333	0.333	0.333	0.333	0.333	0.333	0.333	6.327	1.6993	6.675	8	41	1.60422434538121	1	0
"42"	8	26	1	1	1.1	0	9	1	1	3.003	2.118	7.8219	-6.1741	0.5391	-4.7081	0.3883	4.8837	-0.8931	0.5621	0.9084	5.0946	4.7263	1.4263	-5.5844	-1.48	-1.9738	10.2728	0.9937	9.5089	-8.1706	0.2306	0.4077	0.2428	0.454	0.3175	0.4558	0.2775	0.4021	0.431	0.4974	0.2699	0.3333	0.2841	0.2282	0.2601	0.3361	0.2052	0.4082	0.2895	6.3309	1.7039	4.7203	8	42	1.09961178900119	1	0
"43"	8	6	1	2	2.2	1	15	1	1	4.974	3.7152	-1.1035	6.645	4.5251	-2.2702	7.0362	-0.7203	-5.4545	1.9933	-6.3187	2.7908	4.6651	8.9506	3.4187	-3.3825	1.1027	-1.757	13.9549	3.8587	0.4082	0.333	0.333	0.333	0.333	0.333	0.333	0.333	0.333	0.333	0.333	0.333	0.333	0.333	0.333	0.333	0.333	0.333	0.333	0.333	6.327	1.6679	6.658	8	43	1.60422434538121	1	0
"44"	8	12	1	1	1.1	0	20	-1	0	6.93	5.6987	-3.9416	-2.2574	11.3244	11.9312	3.8573	-3.1932	-2.5666	2.6123	-3.1383	-4.7364	3.1522	-1.4178	1.3931	-2.8731	2.1309	2.9778	2.4229	3.4585	-6.5216	0.4733	0.2924	0.4229	0.2778	0.5113	0.2267	0.5157	0.2785	0.2269	0.3617	0.2566	0.2038	0.3464	0.3002	0.4335	0.2173	0.293	0.4675	0.226	6.3317	1.5331	8.4811	8	44	1.93585981320181	0	1
"45"	8	20	1	2	2.2	1	13	1	1	4.17	4.7013	-3.8967	5.2077	7.1791	0.5405	-1.3228	0.5781	-0.8145	2.0343	8.5088	6.1043	-2.5533	7.4433	3.1254	-9.0171	9.1428	-5.2964	2.4849	7.6583	2.7286	0.333	0.333	0.333	0.333	0.333	0.333	0.333	0.333	0.333	0.333	0.333	0.333	0.333	0.333	0.333	0.333	0.333	0.333	0.333	6.327	1.4572	5.6375	8	45	1.42791603581071	1	0
"46"	8	42	1	4	4.4	0	17	1	1	5.206	3.4448	2.5057	6.1861	-0.5478	-4.4663	4.5685	11.9317	-1.6942	7.7551	0.1516	-1.6871	10.8387	1.6638	5.1164	14.4127	1.5291	7.1573	6.9202	8.4495	4.6783	0.3759	0.3144	0.4766	0.4061	0.2954	0.2312	0.4037	0.3783	0.2921	0.2345	0.3961	0.2591	0.2888	0.2034	0.3183	0.2179	0.3538	0.4002	0.4797	6.3257	1.6263	6.8399	8	46	1.64981180657237	1	0
"47"	8	36	1	-4	-4.4	0	5	-1	1	1.472	-4.3162	-3.5811	-6.3747	-5.9664	-9.2908	-1.0095	-1.006	-2.6616	-17.8321	-0.404	-7.926	2.6387	-6.0816	-1.6861	-7.3464	-10.1455	-0.367	-5.9	4.41	-1.8453	0.3509	0.2324	0.3388	0.2966	0.3386	0.4061	0.2258	0.481	0.2972	0.4076	0.2679	0.2059	0.2341	0.4892	0.4613	0.29	0.4972	0.3009	0.2034	6.325	1.5742	3.0563	8	47	0.386622020306684	0	1
"48"	8	55	1	2	2.2	0	11	1	1	3.495	5.5013	1.1444	-0.8247	-3.6942	1.1606	-3.9244	-0.9448	4.6819	1.1175	5.2421	-0.3588	12.9983	-7.4274	7.7303	9.334	-3.5011	5.3794	1.4262	3.2023	4.8137	0.3427	0.2368	0.5092	0.2316	0.5325	0.3733	0.2926	0.3948	0.2035	0.331	0.2112	0.3552	0.3063	0.446	0.3548	0.2102	0.2907	0.4466	0.2655	6.3346	1.5619	5.0629	8	48	1.25133337568577	1	0
"49"	8	49	1	4	4.4	1	6	1	1	1.843	9.1488	14.3699	-2.2807	6.592	5.7107	10.7443	0.4193	3.1229	-5.5185	4.4556	2.6625	0.3396	2.0129	1.7105	-0.2565	1.1878	6.093	11.161	4.3897	10.8446	0.333	0.333	0.333	0.333	0.333	0.333	0.333	0.333	0.333	0.333	0.333	0.333	0.333	0.333	0.333	0.333	0.333	0.333	0.333	6.327	1.5477	3.3942	8	49	0.611394678687686	1	0
"50"	8	1	1	-4	-4.4	1	10	-1	1	3.196	-2.2906	-1.6542	-6.7836	-5.9008	-0.2359	-7.2298	1.8768	-8.7447	-1.5221	-1.4067	-15.2671	-11.6774	-3.9994	-9.0486	-4.9687	-2.4764	-1.9365	6.8582	-7.7548	-4.1534	0.333	0.333	0.333	0.333	0.333	0.333	0.333	0.333	0.333	0.333	0.333	0.333	0.333	0.333	0.333	0.333	0.333	0.333	0.333	6.327	1.7064	4.8967	8	50	1.16190002790403	0	1
"51"	8	7	1	4	4.4	1	9	1	1	2.837	5.7828	1.1273	3.6436	11.39	1.5828	12.5349	4.983	6.4346	5.8385	11.7206	-2.6365	6.3404	-1.1892	3.2485	3.1182	0.1929	13.58	-2.6315	-0.0294	1.6386	0.333	0.333	0.333	0.333	0.333	0.333	0.333	0.333	0.333	0.333	0.333	0.333	0.333	0.333	0.333	0.333	0.333	0.333	0.333	6.327	1.7261	4.5716	8	51	1.04274715582671	1	0
"52"	8	70	1	4	4.4	0	9	1	1	2.745	8.9465	2.9581	10.5727	8.304	13.3201	-0.3172	5.8405	6.1725	-0.5082	-4.0403	0.3565	6.7529	0.2033	2.3167	8.1288	10.1818	-3.7266	-0.7799	7.3083	4.8339	0.2281	0.2812	0.5161	0.2113	0.2438	0.3383	0.2305	0.4064	0.502	0.2049	0.282	0.2226	0.4827	0.2245	0.352	0.4823	0.2751	0.4878	0.3562	6.3279	1.4147	4.1795	8	52	1.00978107496149	1	0
"53"	8	68	1	1	1.1	0	20	1	1	6.525	-0.4512	10.1478	0.487	1.6834	2.7193	0.691	-4.9201	0.4311	-7.7199	8.4189	-0.0576	-4.539	0.1737	0.9335	-4.6866	1.8457	-3.0355	6.1884	9.2439	6.2223	0.4143	0.2358	0.4063	0.485	0.3825	0.3117	0.2623	0.2913	0.4336	0.3245	0.3538	0.2851	0.3648	0.2597	0.3653	0.256	0.2288	0.4529	0.2175	6.3312	1.5385	8.076	8	53	1.87564095320876	1	0
"54"	8	69	1	2	2.2	0	10	-1	0	3.211	1.2781	6.4047	13.1551	-5.583	-0.9997	0.0477	0.7166	0.1009	9.1846	11.0905	-5.6594	6.5252	4.8334	-0.1079	-3.4238	2.7798	1.5762	1.506	-1.9387	2.8549	0.245	0.3148	0.2555	0.212	0.2476	0.3086	0.3767	0.4896	0.4253	0.4986	0.2579	0.2161	0.5026	0.2381	0.4829	0.2455	0.311	0.4029	0.2902	6.321	1.4433	4.6623	8	54	1.16658241510738	0	1
"55"	8	64	1	-4	-4.4	0	5	-1	1	1.514	-8.9573	-5.2594	0.1502	-8.499	-14.2805	4.4382	-6.8808	-1.8184	-6.3686	-5.2252	-10.1454	-10.7597	3.9111	-1.1583	-4.659	-0.0412	-7.4692	-2.844	1.7499	-3.4439	0.2361	0.2768	0.5056	0.2986	0.2113	0.3006	0.2046	0.3434	0.5316	0.2434	0.3811	0.481	0.3129	0.4702	0.2662	0.4577	0.3193	0.2171	0.2744	6.332	1.5312	3.0477	8	55	0.414755155015257	0	1
"56"	8	30	1	-2	-2.2	1	7	-1	1	2.092	-5.1565	-6.6504	-1.5003	-4.2317	-3.3081	2.2865	-3.0499	-11.2232	-5.0105	-6.5595	-0.3628	8.3725	-3.3981	3.3499	-5.6832	-1.3471	-0.8653	9.0316	-5.8161	-2.9195	0.333	0.333	0.333	0.333	0.333	0.333	0.333	0.333	0.333	0.333	0.333	0.333	0.333	0.333	0.333	0.333	0.333	0.333	0.333	6.327	1.7046	3.8096	8	56	0.738120546202677	0	1
"57"	8	40	1	1	1.1	0	15	1	1	4.603	1.8502	2.6027	2.4311	4.0315	-5.6114	6.3277	4.389	3.0959	-1.7758	3.6585	-6.3328	6.5147	8.7837	1.2169	-1.8295	-2.1039	-10.6909	0.0608	-3.646	7.2474	0.2538	0.2161	0.2631	0.2344	0.2869	0.363	0.2676	0.2391	0.4592	0.3769	0.2478	0.4074	0.4714	0.3904	0.3172	0.5101	0.2299	0.3847	0.4117	6.3306	1.584	6.1867	8	57	1.5267082648351	1	0
"58"	8	15	1	-4	-4.4	1	7	-1	1	2.255	-2.8361	-13.4851	-1.9726	1.7668	-5.9502	-7.1388	-4.9161	-10.6285	-2.4449	-8.8411	1.6475	-9.0506	-3.936	4.4485	-10.4234	2.3816	-1.5881	-10.4996	-0.0133	-3.4062	0.333	0.333	0.333	0.333	0.333	0.333	0.333	0.333	0.333	0.333	0.333	0.333	0.333	0.333	0.333	0.333	0.333	0.333	0.333	6.327	1.5905	3.8553	8	58	0.813149972954642	0	1
"59"	8	66	1	-1	-1.1	0	12	1	0	3.734	3.3274	-13.6788	6.2084	-0.4304	-3.4511	-4.1436	2.0278	-7.1249	4.2214	-0.2486	5.9841	-0.9364	-6.911	-3.113	-3.2971	1.5992	-4.1052	-2.5343	2.1964	3.6078	0.2795	0.4144	0.2782	0.4412	0.2186	0.3099	0.2606	0.3352	0.3986	0.5219	0.2099	0.4349	0.2879	0.2217	0.297	0.2575	0.3925	0.3481	0.4142	6.3218	1.7037	5.4349	8	59	1.31748004511953	1	0
"60"	8	8	1	-4	-4.4	0	5	-1	1	1.555	-5.7818	-8.0494	-3.5107	-7.7078	-11.0708	-5.7191	-13.3175	-2.866	-11.6113	-0.0037	-1.5156	0.2763	-3.3194	0.8282	-0.2955	6.4386	-10.727	-4.7564	-0.7928	-4.447	0.3493	0.3799	0.2064	0.2644	0.4452	0.3635	0.243	0.2068	0.3657	0.2463	0.4029	0.2419	0.4973	0.4311	0.2708	0.4487	0.3912	0.3525	0.2294	6.3364	1.7184	3.2723	8	60	0.441475545631197	0	1
"61"	8	19	1	1	1.1	1	10	-1	0	3.232	3.9874	-0.2736	-0.1677	-3.1918	6.708	11.2147	-8.6861	-1.5413	-1.5094	3.1913	0.1469	3.2382	5.8791	8.9889	-2.5979	-2.475	-1.2213	1.8642	-6.6327	4.2725	0.333	0.333	0.333	0.333	0.333	0.333	0.333	0.333	0.333	0.333	0.333	0.333	0.333	0.333	0.333	0.333	0.333	0.333	0.333	6.327	1.4172	4.6656	8	61	1.17310114065885	0	1
"62"	8	62	1	2	2.2	1	8	1	1	2.342	5.9174	1.1829	-1.3526	-0.4522	-2.5032	-4.8764	8.628	-2.8368	1.3721	-5.8102	11.497	3.6034	11.0128	4.3027	2.7868	-1.2347	-0.2656	4.2012	8.6842	-0.9771	0.333	0.333	0.333	0.333	0.333	0.333	0.333	0.333	0.333	0.333	0.333	0.333	0.333	0.333	0.333	0.333	0.333	0.333	0.333	6.327	1.6769	4.0262	8	62	0.851005265175526	1	0
"63"	8	35	1	4	4.4	1	8	1	1	2.649	3.5108	6.4801	-7.2927	2.568	6.1073	9.0066	1.8796	-1.1688	6.198	10.5595	8.7089	1.7745	9.9907	7.6529	-3.0836	-0.3922	11.1041	6.1991	1.19	8.3992	0.333	0.333	0.333	0.333	0.333	0.333	0.333	0.333	0.333	0.333	0.333	0.333	0.333	0.333	0.333	0.333	0.333	0.333	0.333	6.327	1.4261	4.0826	8	63	0.974182210289933	1	0
"64"	8	34	1	2	2.2	1	7	1	1	2.076	-1.8636	2.8408	8.6404	-13.5231	0.8517	0.4426	5.7213	0.9815	0.0048	1.6259	6.1983	7.08	5.0644	-2.2175	7.4516	5.7677	2.323	5.4669	4.1315	-1.1234	0.333	0.333	0.333	0.333	0.333	0.333	0.333	0.333	0.333	0.333	0.333	0.333	0.333	0.333	0.333	0.333	0.333	0.333	0.333	6.327	1.506	3.5934	8	64	0.730442965303642	1	0
"65"	8	37	1	-2	-2.2	0	20	-1	1	7.185	-5.2597	8.7458	1.3736	2.1352	-7.0608	-0.5697	-0.5283	-2.9752	-4.5064	1.7716	-4.7003	2.7848	-5.6375	1.48	-4.8888	-12.9978	-8.5122	0.5062	-8.0112	1.5723	0.2635	0.5083	0.4645	0.2703	0.5142	0.4523	0.3878	0.3262	0.3599	0.4121	0.2038	0.2339	0.4538	0.2163	0.2668	0.3112	0.2164	0.2635	0.207	6.3317	1.5277	8.7193	8	65	1.97199551953099	0	1
"66"	8	33	1	1	1.1	1	9	-1	0	2.69	2.3544	-0.9908	0.4629	-5.5853	3.4963	-10.3485	2.4445	2.0623	-2.5244	8.8033	4.1775	-1.11	-8.6561	4.4388	0.2414	9.5831	-0.0557	6.2059	3.5056	2.8422	0.333	0.333	0.333	0.333	0.333	0.333	0.333	0.333	0.333	0.333	0.333	0.333	0.333	0.333	0.333	0.333	0.333	0.333	0.333	6.327	1.4274	4.1245	8	66	0.989541193613748	0	1
"67"	8	22	1	-4	-4.4	0	8	-1	1	2.647	-1.9952	-8.0625	-3.2475	-6.2073	-5.2609	-11.0263	-4.7285	-11.6584	4.4408	-7.685	-2.1381	1.4478	-12.6926	-7.648	-7.8315	-5.7127	2.8631	2.1432	-4.4963	0.1951	0.2637	0.1999	0.5284	0.3717	0.2841	0.34	0.4662	0.3159	0.2446	0.2081	0.3497	0.2329	0.3596	0.309	0.4863	0.3275	0.4998	0.2414	0.2937	6.3225	1.7161	4.364	8	67	0.973426923244964	0	1
"68"	8	9	1	-2	-2.2	0	11	-1	1	3.743	1.7279	-7.1092	-7.1839	4.645	1.9846	5.6326	-1.6371	-4.9816	-3.8617	-6.6318	-6.548	-5.0221	1.0443	-3.287	-11.7887	4.5919	-6.301	4.5841	0.6813	-6.4039	0.203	0.5027	0.3277	0.2284	0.2581	0.3098	0.3741	0.4538	0.4992	0.4191	0.2023	0.4673	0.3655	0.2435	0.2966	0.3507	0.2047	0.4092	0.202	6.3177	1.6592	5.4107	8	68	1.31988742892229	0	1
"69"	8	17	1	-1	-1.1	1	13	-1	1	4.228	-3.8677	-9.2656	-2.9799	1.9397	3.6783	-3.2532	3.8506	-10.3209	2.3262	1.5313	-4.1252	-5.8547	-2.1847	9.6211	0.4378	0.9504	2.3068	-7.2167	3.8983	-2.8257	0.333	0.333	0.333	0.333	0.333	0.333	0.333	0.333	0.333	0.333	0.333	0.333	0.333	0.333	0.333	0.333	0.333	0.333	0.333	6.327	1.6671	5.895	8	69	1.44172906800799	0	1
"70"	8	10	1	-1	-1.1	0	15	-1	1	4.633	-0.657	-11.5714	2.8963	-0.5714	0.6574	-0.42	-0.9462	6.2161	-5.8735	6.0943	-5.4029	4.763	-0.5852	-0.7853	-9.2553	-9.5389	0.0378	-0.0419	2.7495	1.7914	0.25	0.3563	0.2274	0.3303	0.2589	0.2094	0.2402	0.5182	0.2502	0.2931	0.2053	0.3351	0.5287	0.3843	0.2684	0.3425	0.4786	0.4345	0.408	6.3194	1.7083	6.3335	8	70	1.53320460643451	0	1
"71"	8	38	2	-1	-1.1	0	14	1	0	3.969	-1.7146	-13.3805	-1.2071	-1.4079	-5.8651	4.7734	4.5575	1.2143	2.295	-4.7213	1.6783	-0.3819	1.3818	-3.8833	-5.8461	-1.4058	6.1871	-7.4419	7.0109	-3.0883	0.4523	0.3256	0.2391	0.2968	0.335	0.26	0.3018	0.2583	0.3565	0.2372	0.3069	0.2751	0.2312	0.5201	0.4452	0.3264	0.3857	0.5175	0.2535	6.3243	1.5758	5.5535	8	71	1.37851417380093	1	0
"72"	8	35	2	4	4.4	1	5	1	1	1.609	1.8915	2.1357	-2.3123	3.329	14.0557	12.5708	10.6953	12.7181	-0.1218	0.2557	9.0506	3.5807	-0.7837	-1.1093	3.417	0.3412	3.6517	2.5285	8.0212	2.8742	0.333	0.333	0.333	0.333	0.333	0.333	0.333	0.333	0.333	0.333	0.333	0.333	0.333	0.333	0.333	0.333	0.333	0.333	0.333	6.327	1.6214	3.2433	8	72	0.475612868010246	1	0
"73"	8	66	2	-1	-1.1	0	8	-1	1	2.628	-1.1214	-1.1441	7.4261	-2.4679	6.7558	-7.9085	-4.3473	-0.2207	-2.6052	4.3298	-3.8387	1.3034	-3.8204	3.5286	1.3818	-9.6607	-0.6907	7.1167	-7.4467	-6.7117	0.4269	0.341	0.5036	0.2999	0.3441	0.2056	0.3414	0.4099	0.3674	0.2536	0.2988	0.2244	0.3238	0.2605	0.342	0.2716	0.3173	0.4357	0.354	6.3217	1.4503	4.0959	8	73	0.966223100622364	0	1
"74"	8	24	2	-1	-1.1	0	9	-1	1	2.665	2.2821	1.0102	-2.9122	3.8477	-8.7356	-1.1359	-5.7798	3.4526	2.3099	0.0022	3.5978	1.092	7.991	-7.859	-8.6472	-3.075	-2.6904	-4.7242	-6.1166	5.5447	0.321	0.2392	0.2747	0.2236	0.3761	0.3278	0.2703	0.4764	0.2469	0.385	0.4239	0.3061	0.3503	0.4866	0.3979	0.265	0.3039	0.2267	0.4289	6.3305	1.6717	4.3496	8	74	0.980204057617808	0	1
"75"	8	36	2	-4	-4.4	0	3	-1	1	0.86	-7.0385	-13.0425	-3.9221	-2.6652	-2.0025	-7.6137	-5.3663	-4.4251	-6.9206	-10.2162	3.2256	-6.7654	-7.5002	-6.2837	-11.3687	-0.7165	6.1656	3.4179	-2.8496	-0.4561	0.2551	0.3719	0.3222	0.2597	0.2268	0.4514	0.3817	0.4306	0.2529	0.3853	0.2321	0.3213	0.4073	0.2503	0.393	0.3504	0.2283	0.3241	0.4732	6.3175	1.485	2.3437	8	75	-0.150822889734584	0	1
"76"	8	1	2	-4	-4.4	1	9	-1	1	2.794	-3.6476	-5.2499	-10.4667	-2.6017	-5.7931	3.3807	-7.438	-2.5746	-3.5306	-10.4462	-5.3873	2.5903	-13.7532	-9.951	1.3499	1.163	-3.6025	1.4329	-10.9388	-3.1324	0.333	0.333	0.333	0.333	0.333	0.333	0.333	0.333	0.333	0.333	0.333	0.333	0.333	0.333	0.333	0.333	0.333	0.333	0.333	6.327	1.6268	4.4282	8	76	1.02747426083477	0	1
"77"	8	5	2	1	1.1	1	12	1	1	3.78	-2.9805	7.9151	-1.1367	6.7696	-2.9406	-3.6217	2.8853	5.1736	3.0441	-0.8114	5.747	1.0583	5.7659	-7.1822	6.7176	-1.1455	2.7576	-2.8601	-9.9575	5.6809	0.333	0.333	0.333	0.333	0.333	0.333	0.333	0.333	0.333	0.333	0.333	0.333	0.333	0.333	0.333	0.333	0.333	0.333	0.333	6.327	1.4603	5.2478	8	77	1.3297240096315	1	0
"78"	8	17	2	-1	-1.1	1	12	-1	1	3.791	-1.2274	1.129	2.8813	-1.3897	-9.0332	1.6133	3.3041	-1.9281	-2.1969	-1.5632	-1.2259	-5.2921	6.9156	-4.2079	-10.7082	4.2514	1.0926	9.2828	-4.8149	-7.4319	0.333	0.333	0.333	0.333	0.333	0.333	0.333	0.333	0.333	0.333	0.333	0.333	0.333	0.333	0.333	0.333	0.333	0.333	0.333	6.327	1.4242	5.2248	8	78	1.3326298365342	0	1
"79"	8	37	2	-2	-2.2	0	11	1	0	3.287	-6.2821	-1.677	5.2217	-6.981	0.2824	-6.195	4.1238	0.3317	-1.5662	-1.4846	-7.8082	-0.204	-6.0204	5.6835	-2.9804	0.393	-8.0829	-6.3919	-11.2037	6.4496	0.3264	0.2748	0.5251	0.2215	0.3104	0.4291	0.3711	0.2836	0.2418	0.2937	0.2676	0.223	0.4404	0.4018	0.2309	0.4403	0.2356	0.5204	0.2828	6.3201	1.4497	4.7548	8	79	1.18997529468208	1	0
"80"	8	60	2	0	0	1	7	-1	1	2.206	3.0088	0.5818	-10.4261	9.5971	-2.4166	-3.6808	-3.6749	1.2999	-0.6085	-2.8251	-2.6581	-3.2333	2.167	-3.1301	-2.0044	11.4672	4.6241	3.6427	-1.9174	0.6698	0.333	0.333	0.333	0.333	0.333	0.333	0.333	0.333	0.333	0.333	0.333	0.333	0.333	0.333	0.333	0.333	0.333	0.333	0.333	6.327	1.6429	3.857	8	80	0.791180920831311	0	1
"81"	8	50	2	-4	-4.4	0	7	-1	1	1.944	-3.7717	-1.9247	-10.9121	-9.2898	-3.7986	5.6415	3.1735	-1.9239	2.2984	-3.1281	-11.6668	0.3007	-9.8103	-3.4545	-6.4791	-4.4767	-5.2305	-3.2621	-9.3881	-11.1156	0.2901	0.231	0.3507	0.2079	0.3142	0.2856	0.3268	0.3586	0.4352	0.2481	0.4002	0.5055	0.3088	0.3792	0.2588	0.4277	0.5068	0.2222	0.2744	6.3317	1.6256	3.5777	8	81	0.664747706038247	0	1
"82"	8	40	2	1	1.1	0	15	1	1	4.911	1.4233	-11.0162	2.2008	-2.3197	3.6015	-1.6179	-0.23	-7.5868	0.2399	7.6816	-2.3914	0.8208	8.2808	1.7274	5.643	0.7774	-1.84	10.4391	3.8659	1.0755	0.2016	0.5187	0.3786	0.3287	0.4614	0.4155	0.3051	0.2473	0.4657	0.392	0.264	0.2137	0.2688	0.3408	0.268	0.2351	0.3953	0.2148	0.4156	6.3309	1.4814	6.4123	8	82	1.59147758705711	1	0
"83"	8	57	2	-4	-4.4	1	4	-1	1	1.066	-7.0048	-16.3686	-2.6142	0.2705	-3.6911	-0.435	-2.3602	1.1792	-8.8572	1.777	-10.3278	-3.3382	-5.9959	-4.7758	-6.3297	1.9777	-13.611	-3.1902	-3.8869	-0.3115	0.333	0.333	0.333	0.333	0.333	0.333	0.333	0.333	0.333	0.333	0.333	0.333	0.333	0.333	0.333	0.333	0.333	0.333	0.333	6.327	1.4741	2.5497	8	83	0.0639133257436529	0	1
"84"	8	15	2	-4	-4.4	1	6	-1	1	1.977	-5.81	-0.5279	3.7481	0.1121	-4.7521	-4.1219	-10.8424	-9.1588	-3.2582	-14.5518	4.4174	1.4023	-1.8024	-1.6761	-4.2911	-9.5055	-6.069	-10.9468	-3.705	-7.9279	0.333	0.333	0.333	0.333	0.333	0.333	0.333	0.333	0.333	0.333	0.333	0.333	0.333	0.333	0.333	0.333	0.333	0.333	0.333	6.327	1.4802	3.4615	8	84	0.68158054418848	0	1
"85"	8	8	2	-4	-4.4	0	6	-1	1	1.862	-2.9191	-2.6751	2.2699	-6.5964	-6.9777	0.2446	-1.6129	-6.1274	-2.9108	-12.0262	-9.05	5.0696	1.0342	1.3705	-5.6113	-11.7128	-3.4076	-9.4945	-5.5728	-11.731	0.2903	0.2412	0.4213	0.2462	0.3615	0.3191	0.2859	0.3627	0.2841	0.4433	0.2437	0.4061	0.2718	0.2172	0.2926	0.3212	0.4339	0.3933	0.492	6.3273	1.4235	3.2962	8	85	0.621651178854875	0	1
"86"	8	55	2	2	2.2	0	6	1	1	1.539	6.8469	-6.5687	3.4137	5.173	9.6845	3.3837	-1.5338	5.6497	-3.2254	4.4287	0.9652	-5.4065	-0.0461	-4.1007	10.1783	5.0481	4.7283	9.0523	-1.4722	-0.4752	0.293	0.2519	0.3414	0.2884	0.3146	0.2852	0.5034	0.3752	0.2953	0.2447	0.3776	0.2238	0.3887	0.331	0.4568	0.3792	0.3019	0.3578	0.3157	6.3255	1.7029	3.257	8	86	0.431132854856742	1	0
"87"	8	7	2	4	4.4	1	5	1	1	1.554	6.8081	-5.2675	3.7006	7.3203	9.179	-2.0135	8.7278	3.0079	9.1623	0.0692	-0.4913	7.6612	2.2602	4.5939	7.7712	-7.3202	7.566	11.5424	6.1164	6.1415	0.333	0.333	0.333	0.333	0.333	0.333	0.333	0.333	0.333	0.333	0.333	0.333	0.333	0.333	0.333	0.333	0.333	0.333	0.333	6.327	1.4676	3.0215	8	87	0.440832251945456	1	0
"88"	8	4	2	0	0	1	6	1	1	1.685	4.4922	-8.3029	-0.3948	2.7161	-9.0056	-4.2916	1.2972	-3.9294	-2.885	-4.9414	2.7712	0.9705	-1.6193	6.972	2.7868	-5.6108	8.4541	4.6945	0.1317	5.3225	0.333	0.333	0.333	0.333	0.333	0.333	0.333	0.333	0.333	0.333	0.333	0.333	0.333	0.333	0.333	0.333	0.333	0.333	0.333	6.327	1.4889	3.1853	8	88	0.521765563804325	1	0
"89"	8	11	2	0	0	0	7	-1	0	2.562	-4.4763	9.2754	4.9893	4.2079	-2.5138	-6.8558	5.1849	-4.776	1.0816	2.7106	4.7591	-3.1441	1.0561	-0.7742	-5.6272	-2.5517	-3.4809	5.745	-8.2888	5.1716	0.3097	0.3512	0.5273	0.3187	0.2066	0.4438	0.4702	0.253	0.353	0.325	0.3605	0.2034	0.2861	0.2177	0.2704	0.3029	0.4812	0.3705	0.2697	6.3211	1.6825	4.2457	8	89	0.940788203474542	0	1
"90"	8	2	2	-2	-2.2	1	5	-1	1	1.361	-1.1501	-5.9515	-3.355	-0.2666	-3.2983	1.069	9.618	-5.6825	-2.7927	1.4749	5.2788	-5.1896	-8.0911	-7.7167	-6.9767	-11.2706	2.8145	-2.6601	1.8024	-1.5449	0.333	0.333	0.333	0.333	0.333	0.333	0.333	0.333	0.333	0.333	0.333	0.333	0.333	0.333	0.333	0.333	0.333	0.333	0.333	6.327	1.5412	2.9114	8	90	0.308219723669329	0	1
"91"	8	33	2	1	1.1	1	8	1	1	2.434	0.8029	1.8132	2.419	2.4379	-10.4894	-3.1289	1.1799	-1.3434	7.9288	6.7568	6.3516	-4.5504	-0.3035	4.6182	2.3738	-1.7121	2.541	-6.5128	1.6127	10.4277	0.333	0.333	0.333	0.333	0.333	0.333	0.333	0.333	0.333	0.333	0.333	0.333	0.333	0.333	0.333	0.333	0.333	0.333	0.333	6.327	1.5556	3.9843	8	91	0.889535994565335	1	0
"92"	8	41	2	2	2.2	0	10	-1	0	3.251	3.2841	5.9842	7.9727	3.5792	1.9746	-2.8962	15.9788	3.194	-5.8926	1.963	1.8349	-7.0515	-0.6136	1.7069	4.2733	-2.4524	4.8981	1.5073	3.1133	3.5659	0.2162	0.4838	0.3227	0.387	0.2364	0.3753	0.3132	0.2685	0.3303	0.3576	0.2193	0.3176	0.2901	0.3614	0.3234	0.5049	0.3264	0.2343	0.4534	6.3218	1.6179	4.8848	8	92	1.17896264132177	0	1
"93"	8	63	2	4	4.4	1	7	1	1	2.004	-0.4297	9.532	11.0781	8.0798	8.7065	1.584	6.1964	1.6533	1.1533	1.5819	11.2419	10.2208	5.0261	4.3601	-1.6042	-8.5845	0.4216	7.7195	6.8276	1.4653	0.333	0.333	0.333	0.333	0.333	0.333	0.333	0.333	0.333	0.333	0.333	0.333	0.333	0.333	0.333	0.333	0.333	0.333	0.333	6.327	1.7229	3.7379	8	93	0.695145183222618	1	0
"94"	8	67	2	0	0	0	5	1	0	1.466	0.0297	4.7502	-7.2335	9.7545	-1.3808	-0.3423	1.2727	5.4308	3.8518	-1.0344	4.382	2.4766	-0.2759	-4.3905	-1.7295	1.8244	-3.0927	-8.0166	-10.1431	3.1181	0.3932	0.4515	0.2802	0.3248	0.3499	0.3034	0.233	0.2795	0.2085	0.2902	0.2493	0.3224	0.3708	0.4511	0.3062	0.3894	0.5053	0.2511	0.3684	6.3282	1.6815	3.167	8	94	0.38253760346446	1	0
"95"	8	46	2	0	0	1	7	1	1	2.182	4.7781	0.3465	-5.594	2.1056	5.7107	9.9623	-0.9922	-1.0277	-0.2233	-1.6237	8.052	-7.0093	5.3114	0.7359	-1.9284	1.7608	-5.0328	-7.661	-1.2193	-5.5217	0.333	0.333	0.333	0.333	0.333	0.333	0.333	0.333	0.333	0.333	0.333	0.333	0.333	0.333	0.333	0.333	0.333	0.333	0.333	6.327	1.5176	3.716	8	95	0.780241887410879	1	0
"96"	8	42	2	4	4.4	0	8	1	1	2.341	9.1168	-7.808	10.0538	2.9506	1.6686	5.9925	8.6606	7.6399	7.574	-2.0279	-0.6382	3.035	6.8969	1.5193	3.747	1.3664	0.9459	13.5639	2.1289	10.0613	0.3039	0.2364	0.2724	0.3522	0.4147	0.2019	0.387	0.2554	0.4834	0.4182	0.2543	0.4176	0.2753	0.2324	0.3069	0.383	0.4428	0.3191	0.3789	6.3355	1.5223	3.8747	8	96	0.850578188508774	1	0
"97"	8	16	2	-2	-2.2	1	7	-1	1	2.222	0.5958	-1.9104	1.8764	3.6764	-4.1044	-7.056	-4.1517	0.1903	7.2063	-13.7808	-2.9659	-1.6288	-0.786	-5.954	-2.1301	-5.4886	-5.3922	-9.089	1.5957	5.2167	0.333	0.333	0.333	0.333	0.333	0.333	0.333	0.333	0.333	0.333	0.333	0.333	0.333	0.333	0.333	0.333	0.333	0.333	0.333	6.327	1.7134	3.9396	8	97	0.798407691217438	0	1
"98"	8	32	2	0	0	1	10	1	0	3.169	-1.139	-0.1792	6.1446	2.7645	-4.3649	-3.2763	7.4479	7.4474	3.2788	5.4139	-10.6634	-3.4583	-4.5436	-2.6687	7.1263	-2.881	-5.6386	-0.9202	1.2747	-0.8872	0.333	0.333	0.333	0.333	0.333	0.333	0.333	0.333	0.333	0.333	0.333	0.333	0.333	0.333	0.333	0.333	0.333	0.333	0.333	6.327	1.6539	4.8369	8	98	1.15341608070878	1	0
"99"	8	61	2	1	1.1	1	9	-1	0	2.93	2.3797	-0.1395	-0.553	10.098	7.7995	2.3821	2.6739	-3.4969	-9.8008	3.7936	3.825	-0.0621	0.3134	-6.6113	-0.2254	-3.1213	-0.096	5.4031	9.9725	-3.6814	0.333	0.333	0.333	0.333	0.333	0.333	0.333	0.333	0.333	0.333	0.333	0.333	0.333	0.333	0.333	0.333	0.333	0.333	0.333	6.327	1.5469	4.4811	8	99	1.07500242302898	0	1
"100"	8	14	2	4	4.4	0	6	1	1	1.998	5.5724	7.9123	-5.8262	6.2203	8.6735	9.6804	0.5655	2.1791	2.8246	-0.1562	3.5557	17.88	5.4735	-1.8927	7.575	5.6216	2.4481	7.1442	0.2244	3.4034	0.2745	0.2019	0.405	0.3724	0.3987	0.3483	0.4084	0.2611	0.2258	0.3298	0.2867	0.3715	0.4301	0.2239	0.3847	0.2944	0.4803	0.3005	0.3282	6.3262	1.6556	3.6658	8	100	0.692146680226362	1	0
"101"	8	9	2	-2	-2.2	0	8	-1	1	2.748	-0.4698	-13.9578	-10.1851	-2.29	-2.4267	-4.1949	-2.953	-0.9539	-5.8419	-1.5701	-2.6166	-0.954	-1.5283	-9.0612	2.8869	7.6141	4.6646	3.3885	-4.686	-0.3914	0.339	0.2495	0.2913	0.4374	0.4876	0.2858	0.4877	0.2621	0.2276	0.281	0.2107	0.3952	0.2153	0.2836	0.4102	0.4458	0.3118	0.5091	0.2001	6.3308	1.6583	4.415	8	101	1.0108733743601	0	1
"102"	8	26	2	1	1.1	0	14	1	1	4.202	2.3715	-2.5714	3.3603	4.2416	1.6114	-4.1273	-2.2219	-9.6651	2.908	-0.8862	-0.6585	3.1795	9.9919	8.876	3.9044	1.9862	4.8854	5.6559	-4.9958	-5.7082	0.318	0.4527	0.3606	0.2066	0.2403	0.2777	0.2161	0.2622	0.5209	0.2984	0.2692	0.4415	0.2514	0.4817	0.44	0.2408	0.4526	0.3524	0.2459	6.3289	1.4856	5.6864	8	102	1.43556060242281	1	0
"103"	8	64	2	-4	-4.4	0	17	-1	1	5.488	-6.9215	-4.945	-4.4106	2.5338	-3.9899	-7.4361	-1.0739	-10.3042	-8.3283	-10.4238	-6.417	-9.0979	-4.4593	-9.4115	-1.1062	-12.152	3.0402	-0.5546	-0.5062	6.4254	0.3872	0.3435	0.2254	0.2738	0.5144	0.4371	0.2609	0.3146	0.21	0.2416	0.4316	0.2087	0.3469	0.2819	0.3971	0.4545	0.3154	0.2598	0.429	6.3334	1.4736	6.972	8	103	1.70256389042358	0	1
"104"	8	53	2	0	0	0	10	1	0	2.84	1.0639	-3.1737	-5.3373	0.9857	3.9052	-12.0823	5.2892	1.7458	2.8451	-3.4051	4.2402	3.0971	-1.5466	7.1433	-5.1117	-1.9594	6.9398	0.804	1.7697	-8.6654	0.2221	0.278	0.3078	0.465	0.3322	0.2368	0.2896	0.2143	0.371	0.3415	0.4281	0.3314	0.4522	0.3292	0.2955	0.4551	0.2095	0.2558	0.5026	6.3175	1.4366	4.2903	8	104	1.04380405217311	1	0
"105"	8	47	2	1	1.1	1	7	-1	0	2.054	-2.6063	-3.0257	2.9284	5.3247	-3.6584	1.9258	7.797	14.2077	0.2224	2.3738	9.827	-2.8983	-2.663	-0.2486	-5.7461	-1.3692	2.056	0.4132	0.473	-2.6767	0.333	0.333	0.333	0.333	0.333	0.333	0.333	0.333	0.333	0.333	0.333	0.333	0.333	0.333	0.333	0.333	0.333	0.333	0.333	6.327	1.5168	3.5884	8	105	0.719789111506366	0	1
"106"	8	48	2	2	2.2	1	13	1	1	4.209	-1.1134	3.4802	4.7071	-5.7406	-4.4171	3.6228	-3.3788	0.7506	3.2617	4.3163	-1.7989	-2.4389	2.5985	3.6779	4.9264	14.2646	9.414	-0.6459	-1.0136	7.8599	0.333	0.333	0.333	0.333	0.333	0.333	0.333	0.333	0.333	0.333	0.333	0.333	0.333	0.333	0.333	0.333	0.333	0.333	0.333	6.327	1.4029	5.6261	8	106	1.43722508978843	1	0
"107"	8	28	2	4	4.4	0	13	-1	0	4.136	6.4433	-3.28	0.4916	-2.3105	7.231	1.8708	5.5817	10.1252	4.146	3.4344	-0.2818	5.125	-0.0145	4.0141	10.4969	10.5642	6.5959	15.638	6.9513	-3.0625	0.2204	0.3267	0.2953	0.2677	0.4441	0.2667	0.4008	0.2934	0.3779	0.2706	0.345	0.4956	0.2142	0.2456	0.3633	0.3995	0.2894	0.3801	0.4274	6.3238	1.6378	5.7865	8	107	1.41972913720613	0	1
"108"	8	29	2	-4	-4.4	1	5	-1	1	1.55	-0.2631	-3.9023	-10.5207	-7.5518	-3.1491	-8.5051	-12.2798	-4.1178	-0.8174	-1.0362	-5.1617	-12.5655	3.6756	5.129	-3.1088	0.7726	-7.064	-1.157	-10.9095	-5.2888	0.333	0.333	0.333	0.333	0.333	0.333	0.333	0.333	0.333	0.333	0.333	0.333	0.333	0.333	0.333	0.333	0.333	0.333	0.333	6.327	1.6588	3.2169	8	108	0.438254930931155	0	1
"109"	8	6	2	2	2.2	1	12	-1	0	3.905	1.5088	1.1721	13.3035	4.625	-4.2001	2.5102	-7.691	7.8242	-0.3387	-2.6777	2.0451	-0.5577	11.0322	2.4562	4.5101	-2.8452	3.3052	2.9886	4.8884	-0.5165	0.333	0.333	0.333	0.333	0.333	0.333	0.333	0.333	0.333	0.333	0.333	0.333	0.333	0.333	0.333	0.333	0.333	0.333	0.333	6.327	1.4792	5.3894	8	109	1.36225778329165	0	1
"110"	8	3	2	-1	-1.1	1	15	-1	1	4.704	3.4975	-1.7352	-7.5018	-0.8952	-2.7767	-5.7775	-0.455	-3.1803	-1.4214	-8.564	13.1835	5.6116	-4.9605	-2.7383	1.2681	1.8729	-2.0729	-6.9499	-2.0961	1.8906	0.333	0.333	0.333	0.333	0.333	0.333	0.333	0.333	0.333	0.333	0.333	0.333	0.333	0.333	0.333	0.333	0.333	0.333	0.333	6.327	1.4351	6.1375	8	110	1.54841321059633	0	1
"111"	8	52	2	-1	-1.1	0	15	-1	1	4.453	-4.5061	-5.8176	-5.1346	3.6588	8.3217	-5.3022	2.596	4.5144	3.6053	-2.892	-9.2083	-7.4044	-3.1894	-5.4313	1.733	-6.2197	-1.9526	2.2687	0.5849	6.5614	0.2014	0.3726	0.2988	0.336	0.3661	0.2639	0.3597	0.2568	0.2065	0.2857	0.2563	0.4445	0.2554	0.3544	0.3954	0.5314	0.4743	0.428	0.2343	6.3214	1.625	6.0867	8	111	1.49357802633957	0	1
"112"	8	65	2	-2	-2.2	0	16	-1	1	5.272	-2.8455	-1.9688	2.0591	-3.9646	-3.0592	-6.5861	-9.1671	-6.5267	-3.5955	-2.8908	-1.0051	5.5879	-6.1565	6.7302	2.7753	-11.4614	-4.6739	-6.8798	3.8214	3.9787	0.5194	0.308	0.2293	0.4194	0.2868	0.375	0.2795	0.2353	0.3053	0.4997	0.2337	0.2869	0.4965	0.3107	0.2553	0.3075	0.2493	0.4179	0.309	6.3244	1.4185	6.6897	8	112	1.66240979720021	0	1
"113"	8	62	2	2	2.2	1	7	1	1	2.205	2.2429	-1.7941	0.3973	-3.6317	3.9017	-6.5034	4.4952	5.4989	6.8121	5.5187	-6.0126	1.9747	2.3791	6.5606	6.3927	-4.7894	0.5133	6.0327	0.8861	12.6481	0.333	0.333	0.333	0.333	0.333	0.333	0.333	0.333	0.333	0.333	0.333	0.333	0.333	0.333	0.333	0.333	0.333	0.333	0.333	6.327	1.4191	3.6387	8	113	0.790727508898809	1	0
"114"	8	18	2	0	0	1	11	-1	1	3.382	-1.5052	0.2337	5.9871	-1.6042	0.9622	-5.1397	3.8912	4.3351	-0.9753	7.0482	-5.785	-5.5556	2.3161	0.82	4.948	-4.2	4.3899	-4.7914	-11.9139	6.5831	0.333	0.333	0.333	0.333	0.333	0.333	0.333	0.333	0.333	0.333	0.333	0.333	0.333	0.333	0.333	0.333	0.333	0.333	0.333	6.327	1.4184	4.8157	8	114	1.21846725047639	0	1
"115"	8	10	2	-1	-1.1	0	11	-1	1	3.578	-1.1625	0.1912	1.392	2.7852	3.1919	-0.5379	-7.6547	1.6935	-6.6505	-5.0248	-4.0316	-4.5025	-8.0143	-1.3086	8.2332	1.7186	4.4181	7.357	-6.59	-6.2741	0.4416	0.5271	0.4823	0.3256	0.2049	0.2568	0.2	0.2662	0.4705	0.3404	0.2402	0.2694	0.3998	0.3403	0.2391	0.3962	0.2477	0.2086	0.4728	6.3296	1.4058	4.9951	8	115	1.27480398508653	0	1
"116"	8	51	2	-2	-2.2	0	5	-1	1	1.846	-1.0495	-4.6584	-8.1027	-6.1764	-7.7414	-1.4542	-9.5185	4.8866	-1.8894	3.4141	0.0306	-9.267	2.7145	-6.5125	3.2246	-5.435	3.8489	0.7085	3.644	-6.1434	0.2701	0.376	0.4144	0.4445	0.378	0.2385	0.3359	0.3866	0.3461	0.3946	0.296	0.2135	0.4232	0.4487	0.2856	0.3676	0.2138	0.274	0.216	6.3231	1.4959	3.3463	8	116	0.61302113608066	0	1
"117"	8	22	2	-4	-4.4	0	6	-1	1	1.773	-2.8293	-2.6502	-4.0972	-1.9538	0.8496	-5.2194	-14.7306	-3.3475	-3.2603	-3.4436	-9.8743	-7.8731	-3.9718	6.9407	-1.1369	-6.5374	-3.4557	-15.0783	0.0146	-7.1286	0.2113	0.3374	0.2586	0.5014	0.2579	0.3295	0.2807	0.3266	0.3932	0.2138	0.4979	0.4165	0.2737	0.3643	0.462	0.35	0.2698	0.3273	0.2621	6.334	1.4778	3.2576	8	117	0.572673027092071	0	1
"118"	8	19	2	1	1.1	1	5	1	1	1.58	1.3523	-1.3058	5.3887	7.7362	1.8386	11.0015	1.8244	-2.6518	6.808	-4.25	4.1124	-3.2916	-3.5657	-1.9762	2.0382	-0.9724	-5.8752	2.6181	8.2154	-5.9061	0.333	0.333	0.333	0.333	0.333	0.333	0.333	0.333	0.333	0.333	0.333	0.333	0.333	0.333	0.333	0.333	0.333	0.333	0.333	6.327	1.6029	3.197	8	118	0.457424847038875	1	0
"119"	8	54	2	1	1.1	0	12	1	1	3.743	-1.1069	5.2613	5.5577	2.2375	-4.7468	6.3426	-2.9829	5.2795	-6.2015	10.5233	0.4128	5.9097	4.4677	1.0008	0.0325	-6.3304	-5.1853	-3.4764	-1.3523	7.7965	0.3376	0.5174	0.2607	0.3471	0.5321	0.2021	0.3462	0.3029	0.2071	0.2744	0.2122	0.5062	0.2917	0.4786	0.3288	0.2505	0.3491	0.3141	0.2704	6.3291	1.6311	5.3774	8	119	1.31988742892229	1	0
"120"	8	39	2	0	0	0	11	1	1	3.661	2.5102	0.8957	-6.774	-7.3377	4.0392	3.7322	1.1348	2.8165	0.0807	7.2841	-6.6062	1.2493	-6.3293	-3.1659	-3.3945	0.5588	-5.6672	-1.0763	9.4641	5.486	0.2073	0.2528	0.363	0.4305	0.4981	0.2178	0.416	0.3148	0.262	0.3262	0.5159	0.3296	0.4347	0.2083	0.3652	0.2382	0.2657	0.4734	0.2108	6.3305	1.7067	5.3784	8	120	1.2977363341381	1	0
"121"	8	27	2	2	2.2	0	5	1	1	1.754	1.2012	9.2747	5.2339	5.7436	-6.1479	-1.348	1.3333	-2.5502	8.1499	0.6466	5.6385	-6.2203	8.6409	2.1847	-8.0196	2.3422	4.2842	1.2968	6.8176	6.0589	0.3665	0.3371	0.459	0.5173	0.2908	0.2158	0.2721	0.437	0.2689	0.2143	0.2998	0.3257	0.2507	0.3552	0.213	0.2523	0.3577	0.5245	0.368	6.3258	1.4716	3.2217	8	121	0.561898893949991	1	0
"122"	8	20	2	2	2.2	1	11	1	1	3.583	0.8392	9.8913	8.5297	-1.3011	-5.0904	-5.9132	7.4549	2.4263	-0.9636	5.4845	2.8941	-2.7239	-2.6108	9.6218	-0.4073	-0.6732	9.3688	1.6532	-1.7492	7.0102	0.333	0.333	0.333	0.333	0.333	0.333	0.333	0.333	0.333	0.333	0.333	0.333	0.333	0.333	0.333	0.333	0.333	0.333	0.333	6.327	1.6205	5.2008	8	122	1.27620043832282	1	0
"123"	8	45	2	-1	-1.1	1	18	-1	1	5.877	2.7477	-4.1717	-3.5184	-3.2084	4.9885	-5.8287	3.0436	-0.2685	-9.6233	0.9776	4.8305	-4.1094	-3.9783	-2.4382	3.3963	2.5639	2.104	1.4789	-14.6095	2.1193	0.333	0.333	0.333	0.333	0.333	0.333	0.333	0.333	0.333	0.333	0.333	0.333	0.333	0.333	0.333	0.333	0.333	0.333	0.333	6.327	1.7239	7.6117	8	123	1.77104642763051	0	1
"124"	8	58	2	-2	-2.2	1	6	-1	1	1.796	-0.9261	10.0554	1.7294	-2.1774	-6.7645	-2.393	-3.3132	2.5956	2.5479	-3.9531	-7.443	-7.5456	-9.8416	5.9911	-0.7591	-5.6444	-0.287	-5.8365	-4.9192	-3.5579	0.333	0.333	0.333	0.333	0.333	0.333	0.333	0.333	0.333	0.333	0.333	0.333	0.333	0.333	0.333	0.333	0.333	0.333	0.333	6.327	1.5379	3.3462	8	124	0.585561969880008	0	1
"125"	8	34	2	2	2.2	1	5	1	1	1.609	6.0561	3.1521	4.8774	3.7534	7.8532	-2.7027	-8.4902	1.7623	10.9656	-4.0052	8.8949	3.9856	-1.1084	-2.9196	-1.9176	3.8088	3.7917	0.0881	-1.8033	6.9968	0.333	0.333	0.333	0.333	0.333	0.333	0.333	0.333	0.333	0.333	0.333	0.333	0.333	0.333	0.333	0.333	0.333	0.333	0.333	6.327	1.4504	3.076	8	125	0.475612868010246	1	0
"126"	8	25	2	0	0	0	5	1	0	1.492	1.5994	-0.2167	-4.398	0.654	2.4803	2.7131	-1.6155	-11.8293	-1.6569	-9.4533	3.9015	7.0058	5.9468	1.6097	-3.1246	2.7695	4.3795	0.8405	4.9189	-5.9289	0.2802	0.4306	0.2744	0.404	0.271	0.3968	0.2093	0.3439	0.2562	0.3133	0.245	0.4762	0.3641	0.2496	0.4718	0.2819	0.3332	0.414	0.3045	6.32	1.5804	3.0757	8	126	0.400117501781569	1	0
"127"	8	70	2	4	4.4	0	6	1	1	1.846	-0.4173	-7.1432	9.6009	10.067	10.1203	4.1217	7.1447	3.7913	13.5497	4.4146	10.8102	6.8425	4.417	-0.25	-2.8827	1.4052	1.0082	1.8919	3.5284	6.5218	0.3841	0.4121	0.2943	0.2323	0.2946	0.2688	0.3478	0.2845	0.2556	0.4178	0.2531	0.4343	0.2734	0.3415	0.2405	0.3096	0.4486	0.4875	0.3406	6.3213	1.4228	3.2802	8	127	0.61302113608066	1	0
"128"	8	21	2	4	4.4	1	7	1	1	2.204	7.8846	-1.1149	0.9337	6.9845	6.5763	5.4056	3.8626	12.0267	-4.3788	11.6579	-0.8465	7.1917	1.8767	6.024	1.165	3.5293	10.9225	-0.4902	10.9274	-2.9904	0.333	0.333	0.333	0.333	0.333	0.333	0.333	0.333	0.333	0.333	0.333	0.333	0.333	0.333	0.333	0.333	0.333	0.333	0.333	6.327	1.5857	3.8052	8	128	0.790273891290668	1	0
"129"	8	68	2	1	1.1	0	10	1	1	2.889	3.4562	-1.2362	3.7667	6.7528	9.5789	-7.1413	-4.8692	4.2364	5.5303	0.7281	-0.8721	3.0142	-0.4064	-3.9215	4.6674	-0.1363	-3.797	-8.4696	8.8226	3.522	0.2574	0.2175	0.2567	0.2155	0.3931	0.457	0.3626	0.2457	0.4707	0.3893	0.4379	0.52	0.3892	0.2058	0.2458	0.3082	0.207	0.2364	0.5165	6.3321	1.5826	4.4729	8	129	1.0609104214841	1	0
"130"	8	43	2	-4	-4.4	1	7	-1	1	2.195	-1.6736	-3.3447	-6.8392	-1.553	-10.214	-8.3337	-2.8351	-11.1225	-5.5155	4.7539	4.5343	-9.5614	2.0349	-2.8064	-6.0974	-1.8126	-12.4555	-2.3475	-10.0943	-2.3581	0.333	0.333	0.333	0.333	0.333	0.333	0.333	0.333	0.333	0.333	0.333	0.333	0.333	0.333	0.333	0.333	0.333	0.333	0.333	6.327	1.6692	3.8792	8	130	0.786182046527135	0	1
"131"	8	56	2	4	4.4	0	4	1	1	1.288	3.3282	8.7111	-0.3044	-2.6961	2.1896	2.1206	3.5185	-2.0147	4.661	-0.3009	-3.0698	8.7376	5.6634	3.2568	6.8342	3.6669	17.4797	6.3989	6.979	10.9554	0.2744	0.2136	0.5011	0.3567	0.3183	0.2057	0.2417	0.5292	0.4258	0.5162	0.3623	0.2051	0.4343	0.2069	0.2507	0.3003	0.3327	0.4244	0.221	6.3205	1.43	2.722	8	131	0.253090627682162	1	0
"132"	8	69	2	2	2.2	0	7	1	1	2.212	0.0725	7.6737	5.552	1.841	-0.6776	3.626	0.8133	5.1423	1.9283	6.3623	-1.6265	-0.7704	4.6164	-8.7369	-2.2507	10.3527	-2.9618	12.4036	2.4779	-3.7767	0.2759	0.373	0.3	0.2443	0.4112	0.4649	0.2321	0.3441	0.371	0.2764	0.3306	0.2433	0.2753	0.4855	0.3035	0.4565	0.3668	0.3245	0.2453	6.3241	1.4003	3.6129	8	132	0.793897083660088	1	0
"133"	8	23	2	-2	-2.2	0	20	-1	1	6.915	-2.7583	-2.5598	-3.0257	-5.2591	-13.8955	-0.6181	-10.3366	6.3708	-0.3251	-4.2	1.632	-7.2994	-6.4722	2.0478	0.4414	5.8629	3.1817	-0.847	0.0928	-4.776	0.5126	0.4101	0.2178	0.4488	0.2983	0.4298	0.3414	0.4233	0.2207	0.2847	0.351	0.3209	0.2613	0.2016	0.4793	0.387	0.286	0.243	0.2083	6.3259	1.4824	8.3991	8	133	1.93369296511672	0	1
"134"	8	31	2	-1	-1.1	1	7	-1	1	2.01	-2.3228	5.1146	-6.9171	-0.9245	-6.0836	-4.6831	-5.6371	-3.3915	0.5111	-4.0922	9.0526	-2.496	3.4421	-7.7343	0.7603	6.4795	4.5365	2.3845	-7.8363	-1.6531	0.333	0.333	0.333	0.333	0.333	0.333	0.333	0.333	0.333	0.333	0.333	0.333	0.333	0.333	0.333	0.333	0.333	0.333	0.333	6.327	1.4081	3.4278	8	134	0.698134722070984	0	1
"135"	8	12	2	1	1.1	0	5	1	1	1.386	1.905	-2.4902	-1.0551	3.4071	9.9764	-5.8155	7.6275	5.687	4.3221	-5.3879	9.7147	-3.2621	-3.7378	4.353	-1.521	-5.0312	1.8394	4.4166	-0.2013	-2.636	0.3031	0.3785	0.4762	0.2029	0.2967	0.2681	0.3056	0.3699	0.4511	0.2533	0.309	0.3738	0.2722	0.2179	0.2745	0.3344	0.5316	0.469	0.2395	6.3274	1.4095	2.8038	8	135	0.326421900767711	1	0
"136"	8	59	2	-1	-1.1	1	3	-1	1	0.812	-5.4107	-6.4273	-1.4669	0.4988	-3.5492	-3.2943	7.5574	2.7328	-8.6234	3.6319	-3.2052	0.3747	-5.1282	-7.5755	1.5017	2.1414	-3.7041	-2.9047	1.6734	10.4354	0.333	0.333	0.333	0.333	0.333	0.333	0.333	0.333	0.333	0.333	0.333	0.333	0.333	0.333	0.333	0.333	0.333	0.333	0.333	6.327	1.4629	2.2964	8	136	-0.208254938820459	0	1
"137"	8	30	2	-2	-2.2	1	3	-1	1	0.811	1.8968	-7.3955	-5.9381	-2.5909	-0.1472	4.5343	-4.7143	-3.79	1.3661	1.1392	-4.9182	-0.1418	4.4974	-7.9838	-7.6651	-8.4743	3.676	-5.5037	6.939	-9.088	0.333	0.333	0.333	0.333	0.333	0.333	0.333	0.333	0.333	0.333	0.333	0.333	0.333	0.333	0.333	0.333	0.333	0.333	0.333	6.327	1.5353	2.3615	8	137	-0.209487224866724	0	1
"138"	8	44	2	-2	-2.2	1	5	-1	1	1.579	-0.5365	5.8173	-2.795	-5.5008	3.6529	0.7617	-3.0496	6.032	-4.4336	4.3486	-14.3703	-2.3258	-4.4235	-2.8682	-4.0287	-8.7227	-2.7727	-3.1818	-5.5027	1.5882	0.333	0.333	0.333	0.333	0.333	0.333	0.333	0.333	0.333	0.333	0.333	0.333	0.333	0.333	0.333	0.333	0.333	0.333	0.333	6.327	1.5861	3.1802	8	138	0.456791735273505	0	1
"139"	8	49	2	4	4.4	1	5	1	1	1.378	1.0766	14.4578	3.3622	4.3587	4.2417	4.6893	9.3059	9.278	-1.4768	1.0276	1.7968	3.3771	-1.9599	13.9249	5.05	-2.9025	4.4494	11.0051	-2.3575	6.5163	0.333	0.333	0.333	0.333	0.333	0.333	0.333	0.333	0.333	0.333	0.333	0.333	0.333	0.333	0.333	0.333	0.333	0.333	0.333	6.327	1.5597	2.9452	8	139	0.320633172591467	1	0
"140"	8	13	2	2	2.2	0	6	-1	0	1.621	-0.2528	12.4394	1.744	6.2355	-2.8734	-0.7069	-3.8618	9.9345	4.183	-0.6495	-3.7777	3.3288	3.5099	-1.8617	8.7555	-0.3186	5.6103	8.0534	-2.0387	-4.992	0.3393	0.4662	0.2621	0.2911	0.2479	0.4744	0.2861	0.3239	0.2937	0.2081	0.4166	0.2169	0.4425	0.2176	0.4863	0.4551	0.3125	0.3658	0.2134	6.3194	1.5904	3.2218	8	140	0.483043242753539	0	1
"141"	8	43	3	-4	-4.4	1	4	-1	1	1.018	-1.2183	-3.8601	-9.2357	-4.3038	-10.3207	-2.7949	-5.8901	-11.282	-10.9586	-2.0513	-3.8561	-5.5902	-2.6704	1.8217	-7.9565	-7.9444	-5.6274	-1.325	9.9688	-2.3647	0.333	0.333	0.333	0.333	0.333	0.333	0.333	0.333	0.333	0.333	0.333	0.333	0.333	0.333	0.333	0.333	0.333	0.333	0.333	6.327	1.5739	2.6022	8	141	0.017839918128331	0	1
"142"	8	51	3	-2	-2.2	0	9	1	0	3.316	-0.3675	-0.4338	-3.351	3.0808	-5.2837	4.6665	-0.1143	6.2746	-0.8167	-4.787	0.6503	0.1494	-14.4381	-11.5855	-4.0815	-3.5762	-7.7301	-4.8077	2.4729	-1.5902	0.3765	0.4516	0.422	0.3718	0.447	0.2936	0.4963	0.3021	0.2444	0.2908	0.2182	0.3045	0.2637	0.3748	0.2211	0.4146	0.2647	0.3379	0.2312	6.3266	1.5942	4.9169	8	142	1.19875923727305	1	0
"143"	8	32	3	0	0	1	14	-1	1	4.459	2.1878	11.4612	2.1596	1.1002	6.7628	0.5723	-1.1312	7.1149	-1.1366	4.8862	-4.7839	-1.6856	-6.3388	-1.9464	-4.5997	-3.6829	-7.7252	2.5268	-4.1487	-2.0549	0.333	0.333	0.333	0.333	0.333	0.333	0.333	0.333	0.333	0.333	0.333	0.333	0.333	0.333	0.333	0.333	0.333	0.333	0.333	6.327	1.5944	6.0602	8	143	1.49492452564534	0	1
"144"	8	50	3	-4	-4.4	0	5	-1	1	1.334	-3.4948	-14.6368	-10.01	-6.035	-0.6748	-6.096	-2.182	0.5226	-6.7294	-10.3187	-6.8687	-1.8694	2.861	2.9051	-4.58	-1.848	4.2352	-9.3988	-9.984	-3.601	0.3434	0.2585	0.4702	0.2154	0.4922	0.2243	0.4035	0.2377	0.4601	0.3946	0.2054	0.2397	0.3168	0.4757	0.2999	0.4693	0.2272	0.3341	0.2536	6.3216	1.634	2.9684	8	144	0.288181947493432	0	1
"145"	8	29	3	-4	-4.4	1	7	-1	1	2.234	-7.2831	-0.9303	-10.3544	-3.7672	-12.7779	-13.517	-2.1451	-1.4297	-7.3334	-5.1499	3.4987	-6.1121	2.4869	-0.8923	-7.723	-0.4542	1.5177	-6.5165	0.5371	-8.4618	0.333	0.333	0.333	0.333	0.333	0.333	0.333	0.333	0.333	0.333	0.333	0.333	0.333	0.333	0.333	0.333	0.333	0.333	0.333	6.327	1.53	3.7849	8	145	0.803793700647009	0	1
"146"	8	45	3	-1	-1.1	1	13	1	0	4.037	-1.6126	4.6324	-4.08	-6.2571	-4.2006	-6.0456	-9.6449	-2.9441	-1.162	8.4461	5.5512	-0.5301	9.7481	-1.749	-4.2616	-2.7267	-1.877	3.9135	-5.1085	-2.5539	0.333	0.333	0.333	0.333	0.333	0.333	0.333	0.333	0.333	0.333	0.333	0.333	0.333	0.333	0.333	0.333	0.333	0.333	0.333	6.327	1.7095	5.7548	8	146	1.3955018418708	1	0
"147"	8	47	3	1	1.1	1	4	1	1	1.248	0.2387	5.7338	9.0832	5.376	-0.1151	4.2209	3.5494	3.5568	-2.7689	1.2897	-6.3453	3.6299	1.3699	9.5478	-6.4014	-7.3033	-0.9299	-7.3593	1.4115	2.7036	0.333	0.333	0.333	0.333	0.333	0.333	0.333	0.333	0.333	0.333	0.333	0.333	0.333	0.333	0.333	0.333	0.333	0.333	0.333	6.327	1.5042	2.7655	8	147	0.221542269947236	1	0
"148"	8	46	3	0	0	1	5	1	1	1.532	2.945	1.9703	-15.4106	4.6802	3.1219	-0.4392	3.5179	5.0672	4.9741	0.8491	4.1426	-4.0587	-0.5389	-4.0888	-0.2422	-5.1916	-0.6008	-2.467	-3.7196	4.1859	0.333	0.333	0.333	0.333	0.333	0.333	0.333	0.333	0.333	0.333	0.333	0.333	0.333	0.333	0.333	0.333	0.333	0.333	0.333	6.327	1.5619	3.099	8	148	0.4265740713184	1	0
"149"	8	20	3	2	2.2	1	6	1	1	1.722	1.7656	0.322	8.6848	14.3329	4.5274	4.0791	-1.039	6.9616	-7.5521	7.6722	-0.7441	1.7854	-4.4482	0.1443	-4.4321	-0.8035	3.2142	0.6496	6.4313	3.4448	0.333	0.333	0.333	0.333	0.333	0.333	0.333	0.333	0.333	0.333	0.333	0.333	0.333	0.333	0.333	0.333	0.333	0.333	0.333	6.327	1.6545	3.3895	8	149	0.543486406005539	1	0
"150"	8	66	3	-1	-1.1	0	12	-1	1	3.57	-4.1954	3.3471	-0.7622	-7.0126	-2.3072	-2.9728	-1.0391	-1.3398	-5.6611	-0.7083	-1.6942	-4.7032	-8.8687	-6.1401	10.192	3.4525	-2.3554	-2.2465	8.8511	3.8421	0.2178	0.2958	0.2195	0.3184	0.2686	0.4154	0.2707	0.49	0.3805	0.2136	0.3158	0.4941	0.3252	0.2475	0.3102	0.4461	0.4138	0.2774	0.4118	6.3324	1.5342	5.1209	8	150	1.27256559579155	0	1
"151"	8	21	3	4	4.4	1	5	1	1	1.427	8.7614	3.766	5.0414	0.1451	9.4649	5.3224	4.5702	-4.7324	5.1052	14.4247	0.1439	-0.3396	3.9807	7.732	6.167	0.2227	10.5571	9.3871	-4.6538	2.5865	0.333	0.333	0.333	0.333	0.333	0.333	0.333	0.333	0.333	0.333	0.333	0.333	0.333	0.333	0.333	0.333	0.333	0.333	0.333	6.327	1.7084	3.1446	8	151	0.355574338494699	1	0
"152"	8	5	3	1	1.1	1	5	-1	0	1.423	-2.1003	-3.0071	1.1569	9.1415	-2.5195	-3.299	-5.0946	4.6182	-1.875	3.7595	8.1602	2.2931	10.753	-1.3814	-2.0906	7.2321	-2.5763	4.579	-2.4027	-4.447	0.333	0.333	0.333	0.333	0.333	0.333	0.333	0.333	0.333	0.333	0.333	0.333	0.333	0.333	0.333	0.333	0.333	0.333	0.333	6.327	1.5397	2.9733	8	152	0.352767319107715	0	1
"153"	8	19	3	1	1.1	1	10	1	1	3.33	1.8748	4.869	-9.2164	1.3376	-1.5305	8.8455	-5.2122	1.0746	8.5484	6.0051	3.3932	-6.9154	6.6223	0.5961	4.0545	-2.2889	-3.7706	2.1807	6.0289	-2.623	0.333	0.333	0.333	0.333	0.333	0.333	0.333	0.333	0.333	0.333	0.333	0.333	0.333	0.333	0.333	0.333	0.333	0.333	0.333	6.327	1.5056	4.847	8	153	1.20297230399235	1	0
"154"	8	26	3	1	1.1	0	8	1	1	2.58	1.248	-5.0615	2.9515	6.2617	0.9131	6.3212	0.5349	0.716	-6.002	3.792	-5.0006	0.9499	-1.2558	8.9962	11.0355	2.196	-0.0369	4.195	-6.3337	-5.7509	0.2636	0.3593	0.25	0.2124	0.3897	0.4211	0.4922	0.2437	0.456	0.3017	0.2356	0.2037	0.3023	0.4362	0.2493	0.3164	0.2585	0.4022	0.5311	6.3251	1.5311	4.1141	8	154	0.947789398933526	1	0
"155"	8	67	3	0	0	0	9	1	0	3.037	1.3135	4.3524	0.8517	3.1901	1.21	1.4451	0.2584	-2.3656	5.4632	-14.1775	3.5297	-5.0765	2.5071	-10.1118	1.8425	-4.9774	0.7969	0.7911	6.7747	0.7304	0.2847	0.3707	0.4032	0.3323	0.3941	0.3471	0.2862	0.3616	0.3183	0.4094	0.3379	0.2437	0.3233	0.3764	0.3074	0.3386	0.2596	0.4309	0.2004	6.3258	1.5994	4.6374	8	155	1.11087018606361	1	0
"156"	8	48	3	2	2.2	1	5	1	1	1.62	2.433	0.5592	9.9296	7.7335	-1.1089	-0.7314	3.8396	-7.2575	6.2114	4.7492	4.2479	-1.5947	7.773	-0.4563	-5.2099	0.4102	2.1093	9.8426	-4.8317	7.0001	0.333	0.333	0.333	0.333	0.333	0.333	0.333	0.333	0.333	0.333	0.333	0.333	0.333	0.333	0.333	0.333	0.333	0.333	0.333	6.327	1.6734	3.287	8	156	0.482426149244293	1	0
"157"	8	41	3	2	2.2	0	6	1	1	2.155	-0.1254	-1.6863	4.0938	11.6655	6.046	4.1463	0.9313	-2.8318	2.8468	2.8441	2.1115	-11.2541	5.1747	0.7125	8.8143	9.046	-3.389	1.7142	-0.5366	2.997	0.4497	0.3919	0.2891	0.3754	0.4935	0.2729	0.423	0.2697	0.2159	0.3114	0.3695	0.2133	0.3083	0.2401	0.373	0.2894	0.4176	0.2923	0.3273	6.3232	1.6885	3.8561	8	157	0.767790723555711	1	0
"158"	8	68	3	1	1.1	0	11	1	1	3.491	-3.7451	4.2366	0.3446	5.6576	5.9368	-2.8071	-3.034	8.5596	3.0952	-1.641	-1.9695	5.1358	-0.9277	4.4367	-3.4982	4.5264	-1.4736	-5.3338	-7.8187	10.5033	0.3575	0.4255	0.2793	0.3909	0.2179	0.5029	0.28	0.2067	0.3399	0.2252	0.5247	0.2188	0.451	0.238	0.426	0.2745	0.4379	0.2308	0.2924	6.3197	1.6014	5.1086	8	158	1.2501882281229	1	0
"159"	8	63	3	4	4.4	1	11	1	1	3.337	0.0645	7.5978	11.9895	5.5044	11.6185	6.1225	-0.119	3.905	10.0995	4.7514	8.9918	12.0196	8.0549	-3.4362	0.4029	-4.409	-0.4037	1.3507	1.3884	2.2602	0.333	0.333	0.333	0.333	0.333	0.333	0.333	0.333	0.333	0.333	0.333	0.333	0.333	0.333	0.333	0.333	0.333	0.333	0.333	6.327	1.4608	4.8043	8	159	1.20507219976924	1	0
"160"	8	62	3	2	2.2	1	7	1	1	2.003	5.1631	3.8422	8.4924	-1.8046	8.343	-0.2871	-2.5954	3.5557	-1.211	-0.0107	6.3329	-3.9044	12.9393	10.0459	-2.3294	-3.0583	-0.9902	1.745	1.868	-3.8258	0.333	0.333	0.333	0.333	0.333	0.333	0.333	0.333	0.333	0.333	0.333	0.333	0.333	0.333	0.333	0.333	0.333	0.333	0.333	6.327	1.6662	3.6876	8	160	0.694646056683681	1	0
"161"	8	35	3	4	4.4	1	4	1	1	1.164	8.0904	5.1687	3.559	6.6832	1.9628	4.5715	0.5914	-2.0583	9.6117	8.0078	2.4312	1.2443	1.2228	2.3657	12.7462	7.6547	16.2752	3.4409	0.9939	-5.7514	0.333	0.333	0.333	0.333	0.333	0.333	0.333	0.333	0.333	0.333	0.333	0.333	0.333	0.333	0.333	0.333	0.333	0.333	0.333	6.327	1.5906	2.7644	8	161	0.151862349309246	1	0
"162"	8	44	3	-2	-2.2	1	4	-1	1	1.196	-4.0971	-3.2669	-6.6337	-5.1757	-12.9483	-8.2436	0.1498	0.4788	1.1544	0.3261	3.4467	4.0266	-5.1038	-11.7926	0.1171	4.8963	2.1924	2.6428	-0.4156	-4.59	0.333	0.333	0.333	0.333	0.333	0.333	0.333	0.333	0.333	0.333	0.333	0.333	0.333	0.333	0.333	0.333	0.333	0.333	0.333	6.327	1.4527	2.6631	8	162	0.17898265552844	0	1
"163"	8	36	3	-4	-4.4	0	6	-1	1	2.001	-3.9602	3.2477	-4.901	-5.2296	-12.7998	-1.3621	1.2296	-12.8642	-4.3093	-11.8202	-5.9511	-4.4751	0.4691	-1.9296	2.8904	-7.7113	-11.9814	-3.9466	-2.0286	-1.9615	0.381	0.5266	0.3006	0.2204	0.5241	0.2148	0.3297	0.4989	0.2495	0.343	0.2569	0.2131	0.3481	0.2596	0.4766	0.332	0.2766	0.3033	0.269	6.324	1.6151	3.618	8	163	0.693647055601596	0	1
"164"	8	37	3	-2	-2.2	0	11	1	0	3.249	-5.4485	-5.0231	4.2965	-2.2657	3.8576	-1.6261	4.2764	0.9742	-5.4901	-4.1562	-1.0508	3.8823	-7.5283	-7.7575	7.0095	-6.9059	0.307	-4.7094	-3.668	-11.859	0.4745	0.2725	0.5023	0.2199	0.37	0.2006	0.2778	0.2276	0.3986	0.2247	0.3226	0.4231	0.4676	0.4039	0.2744	0.3998	0.2278	0.358	0.287	6.3326	1.6981	4.9495	8	164	1.17834725668696	1	0
"165"	8	57	3	-4	-4.4	1	3	-1	1	0.973	-1.3006	-2.3435	-0.0253	0.7659	-3.0998	-0.5335	-0.958	4.4288	-3.5366	-8.9975	-6.139	-14.5774	-12.8315	-0.4914	-7.8701	-0.9393	-6.0387	-11.6003	-8.7253	-3.7191	0.333	0.333	0.333	0.333	0.333	0.333	0.333	0.333	0.333	0.333	0.333	0.333	0.333	0.333	0.333	0.333	0.333	0.333	0.333	6.327	1.5962	2.5733	8	165	-0.027371196796132	0	1
"166"	8	49	3	4	4.4	1	4	1	1	1.257	4.8353	13.507	12.8828	2.4017	2.9038	7.7051	5.8607	6.1795	8.1498	-0.2519	0.0658	-3.2064	10.0372	-2.359	1.9805	8.0878	-2.0861	0.9497	8.7709	0.1413	0.333	0.333	0.333	0.333	0.333	0.333	0.333	0.333	0.333	0.333	0.333	0.333	0.333	0.333	0.333	0.333	0.333	0.333	0.333	6.327	1.6783	2.9415	8	166	0.22872792960811	1	0
"167"	8	55	3	2	2.2	0	7	1	1	1.968	2.9155	-5.7017	4.1323	2.417	13.1932	0.3767	-3.1369	-0.5707	5.0549	-0.9446	7.4478	-6.4761	3.0736	2.8332	-2.0278	2.9782	9.5971	7.417	-1.4641	1.8911	0.4086	0.2647	0.3051	0.2336	0.3162	0.2408	0.3434	0.288	0.3233	0.2829	0.3455	0.2155	0.5053	0.4537	0.2928	0.53	0.3272	0.2624	0.3936	6.3324	1.6405	3.6192	8	167	0.677017798630062	1	0
"168"	8	39	3	0	0	0	16	-1	1	4.951	-2.4719	-0.3698	-11.1116	1.1502	-0.6624	4.7883	0.3567	-3.3154	0.5932	5.5256	5.739	-0.0409	-8.2943	2.2764	4.9316	4.4112	6.7855	-1.4848	-7.5164	-2.9489	0.2617	0.436	0.3804	0.3457	0.2165	0.4364	0.2406	0.2013	0.5231	0.3132	0.3617	0.2057	0.4007	0.313	0.2879	0.5002	0.3761	0.3125	0.2135	6.3261	1.6346	6.5856	8	168	1.59958957637929	0	1
"169"	8	3	3	-1	-1.1	1	4	-1	1	1.081	-0.2213	-6.4552	-13.4097	4.1766	-5.8334	-3.2314	7.463	2.7635	0.2401	1.8366	-4.4004	2.5391	1.9276	1.785	2.456	-7.6017	-5.3781	-2.1373	-2.2868	4.4495	0.333	0.333	0.333	0.333	0.333	0.333	0.333	0.333	0.333	0.333	0.333	0.333	0.333	0.333	0.333	0.333	0.333	0.333	0.333	6.327	1.7139	2.8156	8	169	0.0778865386570712	0	1
"170"	8	56	3	4	4.4	0	4	1	1	1.151	1.6641	12.2116	7.3435	-2.0957	-0.5058	6.7535	0.8688	-0.9046	9.7414	9.6701	1.4469	9.7784	-2.0941	9.4224	-0.4677	3.4916	4.0219	13.5285	0.8421	3.2306	0.3505	0.457	0.3125	0.5271	0.2585	0.2122	0.4419	0.281	0.2145	0.3984	0.3119	0.3667	0.2062	0.4767	0.269	0.2962	0.2253	0.3891	0.3312	6.326	1.7077	2.8688	8	170	0.140631129739746	1	0
"171"	8	8	3	-4	-4.4	0	3	-1	1	0.9	-4.3442	-10.9615	-1.366	-9.0253	-4.6534	-11.623	-7.5395	-8.4484	4.9158	1.3338	1.764	-2.4387	-9.7498	-2.4673	-13.0318	-1.3221	-0.6376	-0.526	-6.5987	-2.0093	0.2876	0.2216	0.4258	0.3824	0.215	0.3794	0.2458	0.4925	0.2258	0.2723	0.5031	0.3122	0.2204	0.3136	0.4337	0.2083	0.2507	0.5069	0.4368	6.3338	1.4305	2.3504	8	171	-0.105360515657826	0	1
"172"	8	16	3	-2	-2.2	1	14	-1	1	4.444	-2.6589	1.9747	3.7758	-1.762	-5.4775	-6.3578	-2.7424	-4.1421	-3.8246	8.8055	-6.774	-9.8923	-9.683	1.4206	-0.3443	7.5484	-5.1383	-5.5405	0.641	-3.1435	0.333	0.333	0.333	0.333	0.333	0.333	0.333	0.333	0.333	0.333	0.333	0.333	0.333	0.333	0.333	0.333	0.333	0.333	0.333	6.327	1.4511	5.9115	8	172	1.49155487177738	0	1
"173"	8	13	3	2	2.2	0	7	1	1	2.131	6.7156	10.0607	6.5197	7.0426	-3.3883	-5.8702	-1.5276	4.0738	0.7999	-3.5608	-3.9531	1.9735	0.3942	7.6591	7.1918	-1.9417	6.4966	8.6143	-3.6299	-1.0898	0.2177	0.3705	0.2035	0.3731	0.532	0.2274	0.26	0.3202	0.4179	0.3283	0.373	0.4406	0.398	0.255	0.3102	0.4232	0.3895	0.2688	0.2156	6.3246	1.7216	3.865	8	173	0.75659135311648	1	0
"174"	8	34	3	2	2.2	1	19	-1	0	6.039	5.5313	0.627	-3.687	2.6125	8.6845	0.7576	-7.2346	0.3067	2.8925	-6.2132	1.9949	2.1525	-2.7353	2.4984	4.0849	6.2604	1.9564	2.3075	12.5207	10.1636	0.333	0.333	0.333	0.333	0.333	0.333	0.333	0.333	0.333	0.333	0.333	0.333	0.333	0.333	0.333	0.333	0.333	0.333	0.333	6.327	1.6724	7.7229	8	174	1.79823843532576	0	1
"175"	8	27	3	2	2.2	0	5	1	1	1.585	2.5716	5.7318	-3.9535	9.3164	7.0831	-1.6768	-3.2794	2.3018	-3.9647	-0.4864	3.7536	15.4694	4.0549	-1.0896	1.4655	-1.6398	2.6922	4.5621	-4.8347	4.5991	0.4579	0.3848	0.2275	0.5126	0.3166	0.2167	0.3925	0.2358	0.3658	0.4742	0.2477	0.3476	0.2593	0.2338	0.4243	0.4712	0.2026	0.3156	0.2414	6.328	1.5312	3.1188	8	175	0.460584407329244	1	0
"176"	8	54	3	1	1.1	0	11	1	1	3.147	1.4167	-4.2017	1.145	-2.7818	-10.5855	1.6926	-5.7046	5.3276	-0.1338	3.8352	-1.281	8.9976	0.0413	5.523	6.6816	-3.5094	3.141	4.9068	-2.0325	7.6067	0.2032	0.2703	0.1999	0.2274	0.2989	0.4683	0.2362	0.2925	0.406	0.2914	0.3205	0.2291	0.4631	0.2227	0.5321	0.2886	0.5257	0.3261	0.5233	6.3252	1.4178	4.5641	8	176	1.14644961808227	1	0
"177"	8	1	3	-4	-4.4	1	6	-1	1	1.76	-4.2319	-2.0881	-5.6113	-5.8359	-0.1785	-1.2012	-16.0967	-6.8592	-10.735	-6.4066	-7.772	0.241	-3.634	-2.2245	-4.7111	2.0877	-5.5634	-6.7719	7.5204	-8.5324	0.333	0.333	0.333	0.333	0.333	0.333	0.333	0.333	0.333	0.333	0.333	0.333	0.333	0.333	0.333	0.333	0.333	0.333	0.333	6.327	1.6086	3.3776	8	177	0.56531380905006	0	1
"178"	8	58	3	-2	-2.2	1	17	1	0	5.407	1.9639	0.131	4.0091	8.3141	-2.9969	-5.6612	3.6763	-7.2921	0.4103	-9.0187	-5.6862	-4.2671	-0.777	-6.9403	-11.3389	0.8772	2.0527	-4.4283	-3.4645	-5.5388	0.333	0.333	0.333	0.333	0.333	0.333	0.333	0.333	0.333	0.333	0.333	0.333	0.333	0.333	0.333	0.333	0.333	0.333	0.333	6.327	1.5271	6.9413	8	178	1.68769441039987	1	0
"179"	8	2	3	-2	-2.2	1	9	-1	1	2.693	2.4171	-9.4864	4.9743	-5.6079	8.0651	-7.8424	-4.8153	0.351	-9.4694	-5.5893	0.2041	-1.8091	0.7309	0.8456	-2.332	4.1263	-2.2992	-9.3697	-3.0436	-3.6427	0.333	0.333	0.333	0.333	0.333	0.333	0.333	0.333	0.333	0.333	0.333	0.333	0.333	0.333	0.333	0.333	0.333	0.333	0.333	6.327	1.5629	4.2603	8	179	0.990655813829462	0	1
"180"	8	40	3	1	1.1	0	6	1	1	1.703	-0.2074	6.12	4.4259	-1.5853	2.3188	-5.7792	-1.6699	-0.292	12.8421	0.5214	0.0823	7.0441	0.7212	-4.0328	3.8584	-0.8422	9.7597	-4.5663	-4.1337	-4.1929	0.2094	0.2828	0.3744	0.3021	0.4206	0.5244	0.2193	0.4383	0.2224	0.337	0.2333	0.3322	0.2869	0.3542	0.2829	0.2119	0.4938	0.4477	0.3542	6.3278	1.4001	3.1206	8	180	0.532391401680551	1	0
"181"	8	33	3	1	1.1	1	14	-1	0	4.43	4.8	-3.5436	-7.2062	3.4522	-2.0417	-4.7876	-0.766	-6.3175	2.1702	3.416	-6.5479	5.3347	4.055	4.8037	3.1341	7.1059	-3.4045	9.1067	3.6724	6.3078	0.333	0.333	0.333	0.333	0.333	0.333	0.333	0.333	0.333	0.333	0.333	0.333	0.333	0.333	0.333	0.333	0.333	0.333	0.333	6.327	1.402	5.8473	8	181	1.48839958405704	0	1
"182"	8	61	3	1	1.1	1	3	1	1	0.931	5.2953	6.3926	0.4061	-1.0841	3.9231	2.875	4.8715	-2.9344	3.3918	3.0941	0.9592	-10.6728	-7.7199	-1.0346	-3.37	3.0023	-1.6353	2.7304	0.8381	12.2909	0.333	0.333	0.333	0.333	0.333	0.333	0.333	0.333	0.333	0.333	0.333	0.333	0.333	0.333	0.333	0.333	0.333	0.333	0.333	6.327	1.7183	2.6654	8	182	-0.0714960017050699	1	0
"183"	8	52	3	-1	-1.1	0	12	1	0	3.577	-2.9423	-2.0731	1.7093	-3.0966	-11.0145	-0.3527	-3.8639	4.922	-8.8159	-1.1802	5.8683	9.3669	-8.4338	-0.7787	-3.76	2.4635	2.456	2.1641	-4.0345	-0.66	0.4293	0.2393	0.3717	0.3193	0.4841	0.2518	0.2056	0.2362	0.2752	0.2134	0.2648	0.3269	0.3551	0.4064	0.3776	0.5253	0.387	0.2609	0.4039	6.3342	1.4112	4.994	8	183	1.27452446027688	1	0
"184"	8	4	3	0	0	1	12	1	1	3.723	-1.5778	3.496	9.2976	-5.3494	-3.0892	-2.8532	2.3665	-3.9147	-1.6494	7.9768	-1.9223	2.8123	-0.0446	-4.5913	0.76	-6.6334	0.3657	9.2743	4.3414	-8.579	0.333	0.333	0.333	0.333	0.333	0.333	0.333	0.333	0.333	0.333	0.333	0.333	0.333	0.333	0.333	0.333	0.333	0.333	0.333	6.327	1.6747	5.4072	8	184	1.31452979489058	1	0
"185"	8	69	3	2	2.2	0	12	-1	0	3.91	5.9055	-5.8451	-4.4891	-5.0887	-0.3482	7.6035	3.471	7.1495	2.1348	-3.3411	11.4911	10.2996	0.1818	2.0338	-4.1173	6.1617	1.0894	3.3352	3.6585	1.0095	0.3634	0.5034	0.2271	0.4776	0.254	0.3717	0.2649	0.2088	0.5163	0.3491	0.2512	0.3876	0.2984	0.2633	0.2317	0.4914	0.2557	0.3947	0.21	6.3204	1.7027	5.6276	8	185	1.36353737399727	0	1
"186"	8	53	3	0	0	0	4	-1	1	1.137	0.186	0.2822	-3.7016	-1.3122	-1.5845	5.5993	-0.2988	-5.4871	-1.525	4.6535	0.4045	0.8378	11.0448	-4.6672	1.2795	-4.64	-3.3487	11.2985	-2.4659	-8.4207	0.2453	0.4582	0.3425	0.2447	0.2042	0.321	0.2688	0.3043	0.4516	0.3696	0.2393	0.4043	0.5239	0.3663	0.2777	0.3038	0.2307	0.3218	0.4466	6.3247	1.5413	2.6878	8	186	0.128393214768399	0	1
"187"	8	25	3	0	0	0	4	-1	0	1.44	-2.5204	-5.1024	-4.467	-0.3173	8.1384	-2.3692	2.3843	0.8159	3.5072	-0.6735	-4.27	-6.1814	-6.0923	3.6209	-1.6481	11.5205	5.0906	4.6436	-5.1252	0.4792	0.4868	0.3045	0.4507	0.4245	0.3	0.3842	0.2974	0.2616	0.3102	0.2028	0.4715	0.2383	0.2788	0.2108	0.4607	0.284	0.4137	0.2464	0.2951	6.3217	1.6362	3.0739	8	187	0.364643113587909	0	1
"188"	8	10	3	-1	-1.1	0	16	1	0	4.879	-0.1625	-6.328	1.6445	-6.053	4.4837	-3.2864	10.5731	-4.4612	-12.0346	1.9557	-5.217	-0.9993	5.0578	-3.5223	3.2671	-4.0967	-1.868	-0.0601	-1.3505	-0.9252	0.2433	0.3638	0.3275	0.4966	0.2345	0.2679	0.3546	0.2835	0.3777	0.2054	0.2353	0.2728	0.3832	0.2953	0.4126	0.4424	0.3032	0.5044	0.3269	6.3309	1.6655	6.5461	8	188	1.5849402808337	1	0
"189"	8	15	3	-4	-4.4	1	6	-1	1	1.723	-2.4856	-1.4879	-4.0159	-5.2653	-15.2975	-2.5821	-10.2661	-1.8168	-10.901	-8.319	-1.4883	0.9937	-12.4085	2.2362	-4.5839	-1.6367	-7.9555	-3.6102	2.6698	-0.9112	0.333	0.333	0.333	0.333	0.333	0.333	0.333	0.333	0.333	0.333	0.333	0.333	0.333	0.333	0.333	0.333	0.333	0.333	0.333	6.327	1.5937	3.3235	8	189	0.544066957545793	0	1
"190"	8	31	3	-1	-1.1	1	10	1	0	3.009	2.1827	-4.892	-10.0186	7.6764	-1.6704	0.2598	0.0156	-6.1068	1.603	-8.9193	2.9431	4.5283	-5.1225	-6.0628	-0.3316	0.1931	5.1342	4.8551	-2.4392	-4.857	0.333	0.333	0.333	0.333	0.333	0.333	0.333	0.333	0.333	0.333	0.333	0.333	0.333	0.333	0.333	0.333	0.333	0.333	0.333	6.327	1.6941	4.7096	8	190	1.10160779764791	1	0
"191"	8	60	3	0	0	1	9	1	1	2.687	-1.0236	-0.0672	11.3962	-0.5558	1.7535	12.1522	-2.691	-4.7557	-6.4852	-4.6383	-5.7405	3.8406	-0.925	2.1111	-4.848	-0.3018	1.9034	-0.5928	0.2637	0.9203	0.333	0.333	0.333	0.333	0.333	0.333	0.333	0.333	0.333	0.333	0.333	0.333	0.333	0.333	0.333	0.333	0.333	0.333	0.333	6.327	1.5823	4.2879	8	191	0.988425329633354	1	0
"192"	8	17	3	-1	-1.1	1	7	1	0	2.262	2.0478	3.1219	0.1365	6.8162	-6.3343	6.9633	-5.6415	-8.7981	0.2781	8.9628	-1.4612	-0.7867	2.452	-3.8607	-8.7372	-4.8335	0.2138	-2.0159	-4.1278	-5.3242	0.333	0.333	0.333	0.333	0.333	0.333	0.333	0.333	0.333	0.333	0.333	0.333	0.333	0.333	0.333	0.333	0.333	0.333	0.333	6.327	1.6226	3.8962	8	192	0.816249377693929	1	0
"193"	8	30	3	-2	-2.2	1	6	-1	1	1.737	-3.358	3.1047	1.6725	-6.349	-1.9672	-0.2161	9.2985	2.2983	-1.0316	-7.9705	0.3524	-5.4142	-13.1362	-6.5734	-0.1211	-2.2997	-4.6258	-7.9938	-1.2845	2.1917	0.333	0.333	0.333	0.333	0.333	0.333	0.333	0.333	0.333	0.333	0.333	0.333	0.333	0.333	0.333	0.333	0.333	0.333	0.333	6.327	1.4985	3.254	8	193	0.552159487258968	0	1
"194"	8	28	3	4	4.4	0	15	1	1	5.109	4.911	9.5551	10.1253	0.9604	8.5314	0.1785	1.6747	7.9607	-6.7579	5.0896	4.4381	2.8316	11.7987	-2.665	3.4943	-4.4054	9.2439	5.4876	6.8933	8.2091	0.5214	0.2516	0.5166	0.4658	0.3401	0.2229	0.3924	0.2302	0.3618	0.2058	0.3664	0.227	0.2704	0.3652	0.4643	0.2264	0.3232	0.352	0.2167	6.3202	1.481	6.6101	8	194	1.63100369034866	1	0
"195"	8	42	3	4	4.4	0	4	1	1	1.273	9.1776	2.2267	3.5354	6.3288	9.3821	-3.0701	3.8281	3.2392	2.6302	5.0866	0.1464	1.1794	6.3355	13.8164	12.5983	-0.3671	-0.8644	8.3963	9.279	-5.0704	0.3198	0.2204	0.3582	0.5022	0.2957	0.527	0.4276	0.3397	0.211	0.2633	0.2081	0.2831	0.3732	0.2067	0.3827	0.3198	0.3734	0.2363	0.4837	6.3318	1.6405	2.9239	8	195	0.241376319575269	1	0
"196"	8	65	3	-2	-2.2	0	9	-1	1	3.081	0.322	-4.7367	0.6661	-12.7258	-3.2834	5.1204	-5.6856	-9.9393	4.8387	-4.5037	-2.0056	3.5968	-4.5677	-1.9153	-3.4306	-0.025	2.8143	0.1138	-9.1294	2.2687	0.3092	0.2018	0.3021	0.4861	0.4029	0.524	0.2594	0.3439	0.3139	0.2827	0.2219	0.316	0.3416	0.4331	0.2712	0.2215	0.3435	0.3168	0.4361	6.3277	1.6808	4.7654	8	196	1.12525421961453	0	1
"197"	8	22	3	-4	-4.4	0	6	-1	1	1.846	-0.9114	-4.3567	-1.1347	-9.6718	1.9212	-2.6379	-9.0213	0.4434	-3.8437	-1.1356	1.2546	-8.2802	-0.106	-7.9939	-3.6628	-0.9602	-4.8249	-5.6287	-12.3169	-16.7746	0.2829	0.3571	0.2491	0.3165	0.472	0.4154	0.3165	0.2046	0.4439	0.2611	0.3534	0.4031	0.3326	0.4579	0.2729	0.2286	0.2627	0.2351	0.4576	6.323	1.6828	3.5296	8	197	0.61302113608066	0	1
"198"	8	7	3	4	4.4	1	20	-1	0	7.334	7.6579	10.0867	4.3315	3.0313	10.4794	1.4289	5.0658	12.533	-1.8196	5.9559	7.1984	5.1869	3.2307	8.7645	-3.0463	-1.4895	-5.7386	9.8633	1.1774	5.7695	0.333	0.333	0.333	0.333	0.333	0.333	0.333	0.333	0.333	0.333	0.333	0.333	0.333	0.333	0.333	0.333	0.333	0.333	0.333	6.327	1.5078	8.8511	8	198	1.99252106964913	0	1
"199"	8	23	3	-2	-2.2	0	3	-1	1	0.82	-3.5219	-8.5813	0.9328	1.5125	2.9695	3.2203	4.1406	0.7596	-7.7277	-3.4924	-5.8639	-11.8324	-0.9475	2.891	-5.0208	1.9126	-2.1692	-2.4568	1.7584	-12.6698	0.2773	0.3612	0.2805	0.3125	0.4749	0.2102	0.4307	0.3537	0.3222	0.4188	0.3085	0.2307	0.3987	0.2287	0.4509	0.3381	0.3942	0.3047	0.2322	6.3285	1.5817	2.4037	8	199	-0.198450938723838	0	1
"200"	8	14	3	4	4.4	0	3	1	1	0.844	4.7209	5.7053	1.892	-2.0764	1.7951	4.3718	7.0003	2.6298	9.4721	2.3266	-0.1375	1.8523	-0.6633	-1.6694	16.7414	12.2887	3.1609	-0.0257	6.1868	11.8631	0.2267	0.4487	0.2662	0.3265	0.4289	0.5029	0.243	0.2692	0.3424	0.2264	0.2631	0.4149	0.4496	0.2029	0.2467	0.3598	0.4949	0.3368	0.2858	6.3353	1.5746	2.4279	8	200	-0.16960278438618	1	0
"201"	8	59	3	-1	-1.1	1	4	-1	1	1.061	-0.1596	-5.2821	-8.923	1.4721	-5.1484	-3.9333	-5.5645	-1.7987	2.9025	7.7528	-1.491	-2.7727	-2.9923	12.3684	-1.2575	-0.3444	-3.9139	2.7369	-0.1088	-6.6813	0.333	0.333	0.333	0.333	0.333	0.333	0.333	0.333	0.333	0.333	0.333	0.333	0.333	0.333	0.333	0.333	0.333	0.333	0.333	6.327	1.4805	2.5448	8	201	0.059211859631846	0	1
"202"	8	6	3	2	2.2	1	6	1	1	1.881	3.8704	2.0346	2.4428	6.3627	1.5399	5.4418	7.8814	6.2255	9.5385	3.781	3.5973	10.6192	-0.4819	-2.9289	-2.8899	1.3855	-4.2748	-5.9424	2.6023	-7.0331	0.333	0.333	0.333	0.333	0.333	0.333	0.333	0.333	0.333	0.333	0.333	0.333	0.333	0.333	0.333	0.333	0.333	0.333	0.333	6.327	1.6167	3.498	8	202	0.631803550318893	1	0
"203"	8	24	3	-1	-1.1	0	20	-1	1	6.397	0.0296	-8.9308	10.404	1.0763	0.862	-5.1222	-6.413	7.5252	1.684	-3.8442	2.1163	-5.5204	-7.8705	4.4211	-4.2405	-4.6268	2.8409	-3.2652	-3.3842	0.098	0.2462	0.4228	0.3279	0.2229	0.3355	0.4907	0.3178	0.4606	0.2883	0.2463	0.3002	0.2573	0.4087	0.5246	0.2256	0.2895	0.2345	0.346	0.3752	6.3205	1.6364	8.0474	8	203	1.855829130468	0	1
"204"	8	64	3	-4	-4.4	0	5	-1	1	1.556	-5.4336	0.8433	-7.2361	-10.7784	4.7832	-5.141	4.4745	-5.5465	-6.8548	-0.542	-5.9504	-14.3875	-4.451	0.827	-9.0024	-1.3923	-7.0287	0.1118	-8.0154	-5.7803	0.2135	0.3519	0.4199	0.3267	0.4534	0.4008	0.2381	0.401	0.4827	0.2685	0.2417	0.4332	0.3022	0.2281	0.2921	0.3589	0.2239	0.3261	0.3611	6.3237	1.6246	3.1903	8	204	0.4421184257562	0	1
"205"	8	9	3	-2	-2.2	0	6	-1	1	2.062	-0.6402	-0.1353	-6.1006	-5.7058	-1.8792	-4.6542	4.7948	0.3036	-10.496	-2.7569	-8.4468	-0.8495	-10.6851	3.9609	1.7929	-2.322	6.3485	-7.045	-4.8731	5.3767	0.5145	0.3714	0.2968	0.3944	0.2542	0.3404	0.2751	0.5082	0.2996	0.4873	0.2298	0.4171	0.2292	0.3588	0.2748	0.237	0.3988	0.2038	0.2307	6.3222	1.6245	3.6962	8	205	0.723676385594768	0	1
"206"	8	12	3	1	1.1	0	3	-1	0	1.237	-0.9219	-0.241	-7.1955	-2.6791	5.9006	7.1188	-1.2556	1.5775	6.1463	9.3271	-4.1578	1.1911	-10.0905	-1.2908	2.7431	4.5182	-0.4629	0.9657	8.8183	0.1416	0.3534	0.4988	0.4352	0.2485	0.3288	0.3895	0.2982	0.2188	0.2891	0.4352	0.4051	0.4438	0.2464	0.3079	0.3442	0.2897	0.2215	0.3163	0.2603	6.3307	1.6792	2.9206	8	206	0.212689093410351	0	1
"207"	8	18	3	0	0	1	20	1	0	6.741	-0.4917	4.4348	-7.316	-4.4963	8.4045	-3.1374	5.8913	-3.1611	-0.8543	-7.786	-4.6673	0.4462	2.6301	0.1598	-8.121	1.251	7.3417	6.1835	4.5202	0.3787	0.333	0.333	0.333	0.333	0.333	0.333	0.333	0.333	0.333	0.333	0.333	0.333	0.333	0.333	0.333	0.333	0.333	0.333	0.333	6.327	1.623	8.3752	8	207	1.9082082818713	1	0
"208"	8	70	3	4	4.4	0	4	1	1	1.092	2.6574	3.1638	10.2796	1.9017	0.5856	15.4766	13.118	3.1207	1.6252	-0.6001	3.7316	5.985	1.0659	13.9689	4.1357	6.8234	3.0243	-1.1224	-2.0917	2.2372	0.2574	0.3017	0.3387	0.4773	0.3145	0.3665	0.3013	0.477	0.3071	0.2061	0.461	0.2137	0.4683	0.3417	0.5098	0.2008	0.2536	0.3079	0.2182	6.3225	1.5905	2.6927	8	208	0.0880108773227134	1	0
"209"	8	11	3	0	0	0	17	-1	1	5.383	-0.6994	-3.4135	-0.751	5.9457	-3.3378	-8.63	-0.3163	4.2448	-4.9354	-0.1775	-0.4115	-4.3309	4.2469	4.025	-2.2892	-2.9141	6.9693	-3.0824	12.6298	-2.2464	0.4047	0.3043	0.2004	0.3722	0.3222	0.203	0.2959	0.4981	0.2255	0.4086	0.2937	0.2071	0.3381	0.3673	0.4236	0.2476	0.3841	0.4522	0.3854	6.3343	1.7023	7.0834	8	209	1.68324583957882	0	1
"210"	8	38	3	-1	-1.1	0	20	-1	1	6.974	-2.0107	1.5882	2.0514	3.7384	2.4006	-1.8995	-0.5066	-0.6161	-12.2909	-3.7824	4.3092	-5.7432	-10.0449	-6.2496	0.7391	2.1568	-5.8668	6.416	-0.0451	3.5412	0.2541	0.4606	0.234	0.278	0.4571	0.2152	0.5142	0.2238	0.2702	0.4507	0.2019	0.4163	0.3534	0.3967	0.4731	0.2154	0.3774	0.3116	0.2303	6.3339	1.6033	8.5743	8	210	1.94218894825346	0	1
"211"	8	69	4	2	2.2	0	7	1	1	2.136	2.8482	-4.4557	1.2353	-2.6007	10.8173	6.4551	-2.1899	2.1676	4.3133	-8.3202	5.0795	6.6155	4.5546	10.3843	-3.6467	0.6211	2.0772	8.2738	-0.0334	0.3596	0.3032	0.2447	0.3677	0.465	0.2057	0.3573	0.3312	0.2067	0.2532	0.5295	0.2316	0.5017	0.2869	0.489	0.2881	0.3667	0.2643	0.4127	0.2184	6.3234	1.6056	3.7534	8	211	0.758934921097948	1	0
"212"	8	24	4	-1	-1.1	0	7	1	0	1.917	3.4963	2.7714	-10.3788	-3.343	2.9528	-1.9608	3.0115	-0.8002	-2.9038	-8.598	2.5023	3.2668	-5.3506	7.3009	-8.016	-2.411	-1.4247	-6.8529	4.4122	0.3255	0.3705	0.2488	0.2034	0.393	0.3245	0.2605	0.5159	0.2877	0.2409	0.3613	0.3099	0.2827	0.472	0.5233	0.2109	0.4006	0.2073	0.2594	0.4525	6.3252	1.6246	3.5515	8	212	0.650761464063507	1	0
"213"	8	29	4	-4	-4.4	1	6	-1	1	1.697	-5.0989	5.2487	-7.9077	-7.1619	-12.3214	-0.0823	3.2619	-12.0048	-5.2947	-8.5571	-1.3851	-5.892	-0.3832	-7.3341	-1.1462	2.3897	-2.2551	-10.0684	-3.7918	-6.5349	0.333	0.333	0.333	0.333	0.333	0.333	0.333	0.333	0.333	0.333	0.333	0.333	0.333	0.333	0.333	0.333	0.333	0.333	0.333	6.327	1.6707	3.381	8	213	0.528861986252089	0	1
"214"	8	9	4	-2	-2.2	0	11	-1	1	3.728	-6.5416	-8.9179	-5.2249	-3.8936	-5.0954	8.228	-3.5413	3.3411	7.1511	-5.63	-6.8824	-1.5982	-4.0877	-3.7438	-0.5503	2.1761	4.4395	-1.2985	-2.5799	-8.4862	0.4393	0.4848	0.2076	0.2852	0.4221	0.358	0.2945	0.3412	0.2529	0.3712	0.4021	0.2967	0.2625	0.2087	0.2842	0.392	0.2771	0.4882	0.2532	6.3216	1.6078	5.3452	8	214	1.31587189682334	0	1
"215"	8	57	4	-4	-4.4	1	4	-1	1	1	-4.4233	-7.0454	-5.1612	-2.1533	-7.4772	-4.4994	-4.3788	-13.8144	0.399	3.7303	-3.7785	-9.2717	3.5725	-9.863	2.3941	-0.5339	1.0615	-9.6348	-10.8219	-5.102	0.333	0.333	0.333	0.333	0.333	0.333	0.333	0.333	0.333	0.333	0.333	0.333	0.333	0.333	0.333	0.333	0.333	0.333	0.333	6.327	1.7241	2.734	8	215	0	0	1
"216"	8	26	4	1	1.1	0	4	1	1	1.199	0.7656	-3.305	-1.0734	3.682	1.9936	-8.5531	3.2251	-0.6792	1.7129	11.9985	3.4241	-7.8507	4.489	-5.6701	1.4939	5.8659	-3.0417	1.8512	1.589	8.1437	0.3105	0.3976	0.3396	0.2644	0.3281	0.2706	0.3626	0.3072	0.4264	0.3534	0.2142	0.4065	0.2588	0.3829	0.4206	0.4973	0.3133	0.2587	0.2139	6.3265	1.6861	2.9001	8	216	0.181487876045377	1	0
"217"	8	27	4	2	2.2	0	4	1	1	1.123	-1.0927	1.0425	4.9826	-2.2216	5.9105	2.9367	1.3214	-1.8997	-1.6435	-6.4215	-0.2285	10.5518	2.9092	-2.1654	7.7738	8.7161	8.6496	3.4219	-7.0387	7.386	0.2572	0.2091	0.4684	0.3695	0.2533	0.3404	0.2142	0.3016	0.4471	0.3699	0.5278	0.4408	0.3091	0.2752	0.3612	0.2058	0.2414	0.2692	0.4586	6.3198	1.4177	2.5398	8	217	0.116003675756306	1	0
"218"	8	10	4	-1	-1.1	0	6	1	0	1.662	0.7117	1.0024	1.1837	9.4985	1.6335	-1.5468	-5.7087	-10.2365	-0.2732	-8.9943	-8.19	-0.7965	2.0699	4.2709	-6.5713	-2.2012	-0.4511	-3.1564	-0.2849	5.9271	0.2413	0.4224	0.2554	0.3383	0.2615	0.5196	0.2485	0.3684	0.3195	0.4016	0.3458	0.249	0.3215	0.2549	0.4445	0.3831	0.3028	0.4435	0.2013	6.3229	1.6568	3.3299	8	218	0.508021696433256	1	0
"219"	8	47	4	1	1.1	1	9	1	1	2.922	5.7214	3.5796	4.9729	-9.2256	3.4323	0.7628	-2.7643	-0.2929	8.2718	-0.3379	-10.5728	3.006	5.8163	0.2212	7.7119	1.3238	3.4134	2.3492	-0.8522	-2.6382	0.333	0.333	0.333	0.333	0.333	0.333	0.333	0.333	0.333	0.333	0.333	0.333	0.333	0.333	0.333	0.333	0.333	0.333	0.333	6.327	1.7199	4.6393	8	219	1.07226831332851	1	0
"220"	8	30	4	-2	-2.2	1	5	-1	1	1.622	-5.4746	-6.5738	-4.3145	-11.2762	3.4159	-5.5978	-3.1761	-10.4018	-6.4208	2.2142	-1.2029	-5.3069	-0.873	-2.8529	-2.9365	5.7171	6.5581	-1.626	2.8213	2.1479	0.333	0.333	0.333	0.333	0.333	0.333	0.333	0.333	0.333	0.333	0.333	0.333	0.333	0.333	0.333	0.333	0.333	0.333	0.333	6.327	1.712	3.3395	8	220	0.483659955693221	0	1
"221"	8	58	4	-2	-2.2	1	14	1	0	4.418	-1.7924	5.927	-2.8766	3.7614	-0.1416	-7.958	0.8339	2.7301	-6.4419	-3.7019	-1.171	-0.6222	-7.1583	-7.0916	-3.3313	-4.635	-2.2268	-3.3805	8.7794	-13.0705	0.333	0.333	0.333	0.333	0.333	0.333	0.333	0.333	0.333	0.333	0.333	0.333	0.333	0.333	0.333	0.333	0.333	0.333	0.333	6.327	1.4729	5.885	8	221	1.48568710499793	1	0
"222"	8	7	4	4	4.4	1	11	1	1	3.46	2.2153	14.078	8.9793	1.9713	4.3828	9.2808	0.934	1.7209	7.8043	1.1286	4.264	0.9652	-0.7658	-5.7212	8.716	8.4052	3.7184	0.8431	12.5711	1.0265	0.333	0.333	0.333	0.333	0.333	0.333	0.333	0.333	0.333	0.333	0.333	0.333	0.333	0.333	0.333	0.333	0.333	0.333	0.333	6.327	1.4857	4.9603	8	222	1.24126858906963	1	0
"223"	8	53	4	0	0	0	12	-1	1	3.656	4.2856	-2.3096	5.0422	4.1275	-2.1878	-0.044	2.904	-3.7253	6.2366	-11.4786	-2.4343	0.8709	-6.0728	-7.6466	2.1221	5.8158	4.0376	-1.0797	-2.3521	5.3953	0.2012	0.4355	0.2459	0.2082	0.3217	0.4185	0.3222	0.2037	0.5259	0.4415	0.2489	0.4996	0.234	0.4819	0.3902	0.312	0.2143	0.403	0.227	6.3351	1.6664	5.3397	8	223	1.2963696535919	0	1
"224"	8	20	4	2	2.2	1	8	-1	0	2.517	2.6173	3.4153	7.3484	2.2574	9.3412	-1.9176	-8.3332	-1.3987	2.4389	9.1268	-0.8206	0.2081	4.2962	-1.3984	8.5558	9.0045	3.2954	-3.6347	4.6801	-4.5806	0.333	0.333	0.333	0.333	0.333	0.333	0.333	0.333	0.333	0.333	0.333	0.333	0.333	0.333	0.333	0.333	0.333	0.333	0.333	6.327	1.5142	4.0515	8	224	0.923067716153179	0	1
"225"	8	3	4	-1	-1.1	1	12	1	0	3.937	0.2496	-9.5623	-4.9148	-2.2535	7.1562	3.6765	2.2194	-13.9193	-5.4686	-3.5314	-1.8621	4.6804	-3.2564	1.089	1.2393	-1.7639	4.3995	0.9077	-2.1195	2.6223	0.333	0.333	0.333	0.333	0.333	0.333	0.333	0.333	0.333	0.333	0.333	0.333	0.333	0.333	0.333	0.333	0.333	0.333	0.333	6.327	1.513	5.4548	8	225	1.3704190119616	1	0
"226"	8	42	4	4	4.4	0	5	1	1	1.715	2.367	5.522	0.6141	3.5489	-5.5805	11.3733	2.845	6.3347	4.6139	7.8804	7.6335	-4.2467	7.5178	4.4914	11.8579	8.1617	-3.9405	4.7764	1.4953	9.9294	0.4653	0.3793	0.327	0.3618	0.3144	0.2217	0.2612	0.4558	0.2269	0.3173	0.4196	0.3159	0.2652	0.4393	0.2331	0.2824	0.2444	0.4853	0.3094	6.3252	1.6473	3.3656	8	226	0.539413080617903	1	0
"227"	8	13	4	2	2.2	0	9	1	1	2.606	3.3785	-3.4711	4.1967	-3.323	-1.5086	-6.0813	3.1535	8.2128	6.6936	10.7588	-2.173	-0.9473	2.1927	7.6393	11.9828	2.6038	4.0976	2.7847	-2.8876	-2.34	0.3344	0.2956	0.2214	0.2757	0.2014	0.4486	0.2537	0.442	0.3748	0.2028	0.3012	0.2202	0.4865	0.3742	0.3372	0.4398	0.383	0.4852	0.2405	6.3183	1.5734	4.1904	8	227	0.957816478702653	1	0
"228"	8	34	4	2	2.2	1	4	-1	0	1.053	-1.4409	0.3252	0.1714	6.7281	7.935	-1.0728	0.9788	3.3147	5.2705	-1.0693	5.4139	2.2972	2.3581	3.152	2.8529	0.2327	0.225	8.8597	9.3619	-13.4595	0.333	0.333	0.333	0.333	0.333	0.333	0.333	0.333	0.333	0.333	0.333	0.333	0.333	0.333	0.333	0.333	0.333	0.333	0.333	6.327	1.4263	2.4873	8	228	0.0516432331518384	0	1
"229"	8	4	4	0	0	1	6	1	0	1.836	4.2367	3.8218	-8.7928	2.544	6.8366	-0.8893	3.8026	6.4501	6.4256	-8.5311	3.1187	-8.5417	-3.2492	2.5521	-1.061	-2.1697	-4.2313	-2.6237	0.5978	-0.2712	0.333	0.333	0.333	0.333	0.333	0.333	0.333	0.333	0.333	0.333	0.333	0.333	0.333	0.333	0.333	0.333	0.333	0.333	0.333	6.327	1.4763	3.3206	8	229	0.607589292198299	1	0
"230"	8	56	4	4	4.4	0	10	1	1	3.141	-0.5605	-1.4433	4.9652	-3.7971	12.2281	8.9186	9.693	8.4437	5.9929	-4.4313	6.7309	4.0737	3.5996	0.8524	6.4235	14.948	0.2881	5.2578	2.3639	2.3451	0.5183	0.3362	0.2842	0.2468	0.3228	0.2197	0.2517	0.2919	0.4323	0.3212	0.3732	0.2263	0.335	0.4835	0.2147	0.3994	0.2608	0.3319	0.4746	6.3247	1.73	4.8751	8	230	1.14454122055651	1	0
"231"	8	16	4	-2	-2.2	1	12	-1	1	3.837	0.9553	-0.7644	3.2378	-5.6128	-1.8013	-11.8648	-4.1678	7.4055	-1.1543	-4.884	-10.3854	-8.37	0.6399	-4.1731	-6.8939	3.5902	-0.8968	-2.8795	-0.0251	4.341	0.333	0.333	0.333	0.333	0.333	0.333	0.333	0.333	0.333	0.333	0.333	0.333	0.333	0.333	0.333	0.333	0.333	0.333	0.333	6.327	1.7175	5.5542	8	231	1.34469081126482	0	1
"232"	8	37	4	-2	-2.2	0	17	-1	1	5.554	-4.8376	-0.5963	-7.018	-2.2634	-3.9187	3.3096	-2.4264	4.2533	-5.6224	5.0911	6.9386	1.6987	-7.9986	-7.9737	-5.4225	-12.3576	-0.3384	2.623	-2.4493	-6.081	0.2091	0.2504	0.3744	0.2547	0.5166	0.2685	0.2207	0.4093	0.2009	0.4612	0.5263	0.3162	0.2424	0.3325	0.4183	0.2676	0.3744	0.2414	0.4455	6.3304	1.6119	7.1711	8	232	1.71451838888461	0	1
"233"	8	63	4	4	4.4	1	4	1	1	1.115	5.8303	7.2358	4.079	12.2115	10.5481	-0.7576	-1.8043	11.7897	3.1157	-2.6648	1.555	-5.6043	1.2718	9.9302	6.5718	3.8564	5.6133	9.4051	0.0436	5.5718	0.333	0.333	0.333	0.333	0.333	0.333	0.333	0.333	0.333	0.333	0.333	0.333	0.333	0.333	0.333	0.333	0.333	0.333	0.333	6.327	1.6211	2.7494	8	233	0.108854404912082	1	0
"234"	8	5	4	1	1.1	1	20	1	1	6.669	-1.237	2.1907	-1.0198	4.3873	-6.6283	5.8144	-3.6995	4.5845	1.3143	1.86	-1.8662	-0.003	1.4001	-4.6289	8.9511	4.532	6.5848	-10.8812	1.389	7.9665	0.333	0.333	0.333	0.333	0.333	0.333	0.333	0.333	0.333	0.333	0.333	0.333	0.333	0.333	0.333	0.333	0.333	0.333	0.333	6.327	1.6703	8.3534	8	234	1.89746992365017	1	0
"235"	8	49	4	4	4.4	1	5	1	1	1.383	3.4141	1.6758	6.7722	7.8756	7.1077	10.5203	4.2842	6.6761	3.5539	-6.837	9.1325	2.1916	-3.0307	0.5559	6.6184	6.3241	3.3318	11.3728	-3.627	11.2614	0.333	0.333	0.333	0.333	0.333	0.333	0.333	0.333	0.333	0.333	0.333	0.333	0.333	0.333	0.333	0.333	0.333	0.333	0.333	6.327	1.5976	3.0006	8	235	0.324255052682621	1	0
"236"	8	12	4	1	1.1	0	4	-1	0	1.055	-3.4149	-6.3968	-5.1427	-3.3688	1.9556	2.0035	-3.1775	-1.0635	-3.2273	8.6417	6.3036	5.7259	7.3658	1.8793	4.8059	6.0186	3.8829	0.8668	-6.7985	6.7259	0.2279	0.2596	0.3066	0.4377	0.383	0.4169	0.3755	0.4026	0.3606	0.2092	0.2968	0.4222	0.2416	0.2895	0.3387	0.2996	0.4128	0.384	0.2529	6.3176	1.459	2.5224	8	236	0.0535407669280298	0	1
"237"	8	35	4	4	4.4	1	10	1	1	3.217	5.1186	5.1434	2.8954	3.5309	-3.5604	10.2917	0.2929	9.9869	-1.1775	5.8573	2.0163	7.1912	7.8689	10.3698	-3.5101	7.0852	12.6201	3.4071	-4.246	7.2802	0.333	0.333	0.333	0.333	0.333	0.333	0.333	0.333	0.333	0.333	0.333	0.333	0.333	0.333	0.333	0.333	0.333	0.333	0.333	6.327	1.5515	4.7842	8	237	1.16844924825689	1	0
"238"	8	48	4	2	2.2	1	8	1	1	2.639	2.539	5.6206	-1.8974	-3.6548	0.2659	-2.2591	-3.0194	5.6063	-1.1326	1.9485	1.5301	5.7585	-6.1085	4.2691	5.7453	6.3973	6.5901	-2.6039	15.7599	4.3153	0.333	0.333	0.333	0.333	0.333	0.333	0.333	0.333	0.333	0.333	0.333	0.333	0.333	0.333	0.333	0.333	0.333	0.333	0.333	6.327	1.4542	4.1063	8	238	0.970400057521187	1	0
"239"	8	21	4	4	4.4	1	15	1	1	4.772	3.1561	3.3117	-3.919	14.6482	6.2673	-0.8773	4.6987	5.9831	5.6825	0.3994	1.9187	7.6378	8.1533	2.819	13.245	11.5765	-2.3847	2.1046	3.913	0.6027	0.333	0.333	0.333	0.333	0.333	0.333	0.333	0.333	0.333	0.333	0.333	0.333	0.333	0.333	0.333	0.333	0.333	0.333	0.333	6.327	1.4902	6.273	8	239	1.56276550423567	1	0
"240"	8	28	4	4	4.4	0	5	1	1	1.558	3.5371	13.1033	6.5758	2.0814	10.6798	10.3759	10.2427	-3.6918	3.3866	11.3233	0.8874	1.8878	0.0428	0.1042	0.7163	2.3683	9.3631	-3.0352	1.1667	6.8615	0.4091	0.2492	0.2177	0.3188	0.4127	0.2076	0.2485	0.4185	0.2292	0.3099	0.3985	0.3385	0.2757	0.4992	0.3078	0.4578	0.2374	0.4159	0.3659	6.3179	1.457	3.0256	8	240	0.443402947448557	1	0
"241"	8	44	4	-2	-2.2	1	6	-1	1	1.778	-6.228	-1.8877	5.358	4.5376	-1.6507	-9.0214	-2.4071	-7.7891	-1.5147	-8.1388	-13.414	-0.9015	3.8518	-1.5088	-2.926	4.0223	1.7258	-6.9633	0.4573	0.7012	0.333	0.333	0.333	0.333	0.333	0.333	0.333	0.333	0.333	0.333	0.333	0.333	0.333	0.333	0.333	0.333	0.333	0.333	0.333	6.327	1.4268	3.2114	8	241	0.575489137091713	0	1
"242"	8	64	4	-4	-4.4	0	10	1	0	2.882	-7.6257	5.1416	-8.5575	-1.9521	-8.6618	-6.1799	3.807	-10.5382	-7.9594	-4.0955	-1.1035	-8.0302	-3.1471	-3.3605	-13.8611	-7.9734	-4.8051	-1.9034	1.6509	0.5838	0.3475	0.4271	0.2328	0.4459	0.2585	0.3245	0.201	0.3727	0.2247	0.2654	0.2401	0.4422	0.3886	0.3279	0.3741	0.5226	0.3664	0.3012	0.2626	6.3258	1.4236	4.3156	8	242	1.05848449757733	1	0
"243"	8	59	4	-1	-1.1	1	3	-1	1	0.751	-4.3994	-7.4575	-2.2805	1.8326	3.2608	0.6334	-5.1985	3.9263	-3.7646	8.0757	-4.861	-0.2861	1.8467	-4.1312	-0.1951	-6.5035	-4.3747	-4.839	11.4352	-5.9403	0.333	0.333	0.333	0.333	0.333	0.333	0.333	0.333	0.333	0.333	0.333	0.333	0.333	0.333	0.333	0.333	0.333	0.333	0.333	6.327	1.6008	2.3512	8	243	-0.286349627218002	0	1
"244"	8	1	4	-4	-4.4	1	6	-1	1	1.798	-0.2074	-13.4893	4.6116	-10.4664	-10.722	1.9686	-0.2705	-0.9656	-6.1641	-0.1851	-5.5091	-6.1402	-6.7758	1.4115	-6.7881	-9.375	-5.4243	-0.4715	-9.1909	-4.8452	0.333	0.333	0.333	0.333	0.333	0.333	0.333	0.333	0.333	0.333	0.333	0.333	0.333	0.333	0.333	0.333	0.333	0.333	0.333	6.327	1.5973	3.4152	8	244	0.586674936049429	0	1
"245"	8	22	4	-4	-4.4	0	10	-1	1	3.181	-2.3511	-0.7547	5.5686	-10.7844	-3.8379	-0.9842	1.6145	-3.1012	-2.8401	-5.9732	-9.1694	-9.3821	-10.3195	-5.6062	2.1065	-0.6433	-3.614	-9.713	-14.404	-2.0659	0.4893	0.286	0.2355	0.3654	0.2427	0.2912	0.261	0.4962	0.2959	0.5012	0.2736	0.5281	0.2555	0.2911	0.37	0.2482	0.2172	0.3117	0.359	6.319	1.5514	4.748	8	245	1.15719561276701	0	1
"246"	8	70	4	4	4.4	0	9	1	1	2.813	1.8351	3.5292	-0.0233	10.4033	-0.9818	7.146	7.4318	9.7678	10.0122	9.8992	7.7326	3.1311	1.3992	-1.8668	-4.5029	0.2491	5.5765	0.7044	2.1712	14.7712	0.2826	0.3669	0.3265	0.2486	0.4333	0.2065	0.3363	0.3013	0.3963	0.2491	0.2064	0.3894	0.4152	0.5202	0.2388	0.4154	0.2237	0.4361	0.3417	6.3341	1.6481	4.4804	8	246	1.03425152950772	1	0
"247"	8	61	4	1	1.1	1	16	1	1	5.173	-2.4731	5.871	0.1334	4.7805	0.4742	-1.4828	1.6934	-2.5329	-6.4339	-11.3906	3.3575	8.2001	4.7391	6.8766	-2.0202	-1.4538	2.2784	8.7787	1.2742	2.4501	0.333	0.333	0.333	0.333	0.333	0.333	0.333	0.333	0.333	0.333	0.333	0.333	0.333	0.333	0.333	0.333	0.333	0.333	0.333	6.327	1.4175	6.6068	8	247	1.64345279102138	1	0
"248"	8	38	4	-1	-1.1	0	15	-1	1	5.132	-0.3988	-2.097	0.1945	-1.6834	2.0013	0.2247	-3.8697	-2.318	9.6077	-9.9199	1.5213	-4.7764	-9.2479	-8.994	-0.4106	3.4501	2.3654	2.8591	4.4984	-6.3706	0.2971	0.4132	0.4941	0.3117	0.3552	0.2247	0.299	0.4207	0.2768	0.326	0.4378	0.3157	0.4083	0.2769	0.3268	0.2003	0.4115	0.2192	0.309	6.3242	1.5188	6.666	8	248	1.63549544675339	0	1
"249"	8	6	4	2	2.2	1	4	-1	0	1.272	2.2956	3.0621	1.8881	7.3384	1.1184	-5.0585	-7.5745	0.707	-0.876	-4.8192	8.739	2.0732	11.0723	-3.4435	10.5854	2.0137	0.6817	4.5299	5.604	2.3431	0.333	0.333	0.333	0.333	0.333	0.333	0.333	0.333	0.333	0.333	0.333	0.333	0.333	0.333	0.333	0.333	0.333	0.333	0.333	6.327	1.6776	2.9558	8	249	0.24059046491793	0	1
"250"	8	67	4	0	0	0	6	-1	1	1.869	-3.9053	-4.5905	-4.6033	-1.4882	-0.9932	-2.2836	0.8952	3.5857	-2.3887	-3.2164	13.9128	0.1492	10.2697	-0.4678	-1.8315	0.4564	-2.8696	-5.913	2.8466	3.8025	0.2728	0.4313	0.28	0.224	0.4315	0.2517	0.3353	0.2173	0.3815	0.2777	0.3916	0.2741	0.3303	0.3789	0.5182	0.312	0.2583	0.3134	0.4386	6.3183	1.4015	3.2701	8	250	0.625403528473426	0	1
"251"	8	65	4	-2	-2.2	0	4	-1	1	0.939	-1.3111	-7.4085	-3.0927	-0.3722	10.5406	-0.8524	-8.8549	-6.9549	-9.4978	-0.8294	-9.0587	0.7242	3.2112	-3.7917	-7.0307	-2.0256	2.3944	1.1838	-0.6967	-1.3711	0.2146	0.4155	0.2819	0.4356	0.3165	0.3419	0.2141	0.3643	0.4244	0.5178	0.2045	0.4085	0.3213	0.2607	0.5203	0.2843	0.2137	0.3812	0.2142	6.3352	1.517	2.4565	8	251	-0.0629397997738742	0	1
"252"	8	68	4	1	1.1	0	10	-1	0	3.111	3.2175	1.9243	9.8307	-4.5753	0.9731	5.5407	-0.1518	-4.5736	1.4332	-3.2525	3.9843	10.617	-3.4363	2.6876	0.5951	-6.0498	2.5011	7.9262	-7.8483	0.6197	0.278	0.2453	0.3468	0.3942	0.2617	0.454	0.2429	0.3732	0.2183	0.4699	0.3061	0.3569	0.3947	0.2419	0.3423	0.2556	0.4709	0.226	0.4554	6.3341	1.4203	4.5281	8	252	1.1349442179155	0	1
"253"	8	15	4	-4	-4.4	1	7	-1	1	2.122	-6.1569	-7.4979	-4.6034	-3.2346	-3.0978	-6.2578	4.0463	-8.7032	-1.6738	-5.8263	-7.403	-11.8649	5.5925	-0.0966	-5.5657	-1.0739	-5.3573	0.9344	-4.0809	-16.4317	0.333	0.333	0.333	0.333	0.333	0.333	0.333	0.333	0.333	0.333	0.333	0.333	0.333	0.333	0.333	0.333	0.333	0.333	0.333	6.327	1.5388	3.6567	8	253	0.752359040191791	0	1
"254"	8	66	4	-1	-1.1	0	11	-1	1	3.318	0.5313	-0.9746	-1.1613	-7.8559	-0.4997	-2.5805	-10.003	-5.1679	0.43	-8.3552	9.7213	1.5316	-0.4371	-5.7048	0.1471	5.4825	-1.1329	7.1354	-0.366	-3.4883	0.3901	0.2589	0.2888	0.4101	0.2506	0.3684	0.2127	0.2522	0.5236	0.2074	0.2423	0.4539	0.4142	0.2615	0.5138	0.2385	0.36	0.3287	0.3559	6.3314	1.711	5.0349	8	254	1.19936219176825	0	1
"255"	8	54	4	1	1.1	0	12	1	1	3.88	-2.2815	2.8628	-1.0345	4.5222	0.0802	7.4306	12.1759	3.7017	1.5499	5.4301	0.0339	-7.2496	-0.9157	8.0568	-6.5271	-3.6238	4.7828	-2.6553	-3.0856	-0.4339	0.3808	0.2687	0.453	0.3308	0.2522	0.3464	0.3836	0.2475	0.4139	0.2337	0.386	0.466	0.3592	0.2845	0.2188	0.2714	0.4317	0.3862	0.2225	6.3367	1.448	5.3471	8	255	1.35583515363518	1	0
"256"	8	31	4	-1	-1.1	1	16	1	0	4.999	1.8711	-0.663	-6.7754	2.6324	-4.8486	-0.688	0.1967	-7.9674	-4.6518	-4.5939	7.4471	3.7569	-1.5894	6.4149	-10.1788	2.3706	-8.2912	0.1925	5.8618	-0.6182	0.333	0.333	0.333	0.333	0.333	0.333	0.333	0.333	0.333	0.333	0.333	0.333	0.333	0.333	0.333	0.333	0.333	0.333	0.333	6.327	1.6904	6.6998	8	256	1.60923789243143	1	0
"257"	8	55	4	2	2.2	0	5	1	1	1.198	6.8848	1.1491	7.3547	-4.1241	3.2833	3.6759	4.3552	5.4509	2.4657	-8.723	5.6754	1.6492	-1.1795	0.1882	0.4983	1.1045	0.9409	1.5499	-4.3302	15.2945	0.3886	0.204	0.3605	0.233	0.2845	0.2384	0.2786	0.411	0.3013	0.3313	0.4068	0.335	0.2334	0.5042	0.4676	0.4161	0.2898	0.3559	0.2827	6.3225	1.6404	2.8492	8	257	0.180653499693258	1	0
"258"	8	62	4	2	2.2	1	9	1	1	2.736	5.4794	-4.5784	5.3514	0.0402	1.792	1.9181	7.6721	-0.3683	7.915	6.2768	5.1094	-1.0382	8.3541	3.3861	-8.0209	2.5202	-7.5668	-3.1139	9.0828	3.6514	0.333	0.333	0.333	0.333	0.333	0.333	0.333	0.333	0.333	0.333	0.333	0.333	0.333	0.333	0.333	0.333	0.333	0.333	0.333	6.327	1.6053	4.353	8	258	1.0064969997603	1	0
"259"	8	41	4	2	2.2	0	14	-1	0	4.503	3.1282	8.44	3.5135	6.856	-2.3009	-0.7585	-7.3767	0.7911	6.7393	5.9536	2.9403	-3.0308	-9.7886	-0.026	7.1547	4.7994	6.0345	8.4099	0.6042	3.0813	0.4497	0.2576	0.2163	0.2684	0.4012	0.3586	0.4538	0.2139	0.3677	0.2494	0.4141	0.346	0.4201	0.2035	0.5182	0.2765	0.2122	0.4023	0.2937	6.3232	1.5058	6.0208	8	259	1.50474384131943	0	1
"260"	8	40	4	1	1.1	0	6	1	1	1.562	5.6223	5.2911	-0.3714	9.0485	5.1893	4.6663	0.876	3.5002	2.1966	0.0958	-1.4885	3.394	-10.7785	-4.0137	0.5534	0.7707	-1.4344	8.3307	-8.7675	-2.4564	0.2144	0.2963	0.225	0.4525	0.2149	0.3825	0.5053	0.3037	0.4213	0.2018	0.5322	0.3902	0.3543	0.4361	0.2037	0.2906	0.2419	0.2912	0.3705	6.3284	1.4419	3.0125	8	260	0.445967051417494	1	0
"261"	8	11	4	0	0	0	9	-1	1	3.005	-0.013	-3.3286	0.6356	2.0866	-1.6336	-8.0241	-5.9917	-7.9229	2.8839	-2.7991	-4.6889	4.5208	7.4066	3.3002	-3.6933	0.7125	10.232	-0.8336	5.2173	2.1772	0.3308	0.4628	0.3312	0.2615	0.2158	0.3333	0.4535	0.2811	0.4905	0.3277	0.2051	0.4531	0.3947	0.2018	0.4648	0.2121	0.2933	0.2511	0.3539	6.318	1.5919	4.606	8	261	1.10027756798717	0	1
"262"	8	45	4	-1	-1.1	1	10	-1	1	3.169	-0.3014	-6.0491	-8.6411	2.6575	5.2376	5.2722	-1.2351	-5.8791	-0.7076	9.1769	0.4141	2.4777	3.6552	-1.8293	-7.4174	0.3521	-0.1241	-5.4069	-9.0733	-3.9666	0.333	0.333	0.333	0.333	0.333	0.333	0.333	0.333	0.333	0.333	0.333	0.333	0.333	0.333	0.333	0.333	0.333	0.333	0.333	6.327	1.5279	4.703	8	262	1.15341608070878	0	1
"263"	8	14	4	4	4.4	0	11	-1	0	3.477	0.2259	9.6229	6.4854	8.8337	-4.9548	7.3219	6.8311	-1.1365	2.0445	-0.6334	-3.1197	4.2979	6.3399	2.069	14.8563	7.7152	5.9185	-1.6637	5.5654	9.631	0.3399	0.4243	0.3004	0.3895	0.5184	0.3235	0.2855	0.2377	0.2052	0.3101	0.2143	0.3258	0.4704	0.2211	0.2692	0.4198	0.3295	0.2719	0.467	6.3239	1.4771	4.9608	8	263	1.24616985302572	0	1
"264"	8	8	4	-4	-4.4	0	4	-1	1	1	-3.3288	-6.9822	-7.6686	3.0143	-12.8967	2.2743	-1.1283	-7.6402	-7.5133	-5.3205	-12.5615	-2.6343	-6.4297	-3.7264	-4.3043	-9.7213	0.6644	-7.476	7.0009	-2.8964	0.2539	0.327	0.2482	0.3891	0.4929	0.3435	0.302	0.3896	0.359	0.298	0.4572	0.2379	0.4152	0.2082	0.302	0.2479	0.4497	0.3205	0.2868	6.3283	1.5478	2.5507	8	264	0	0	1
"265"	8	23	4	-2	-2.2	0	11	-1	1	3.538	-3.5666	-7.7601	0.0605	-4.0901	-10.4918	1.9403	-3.0111	-4.3649	-6.3294	-7.9777	8.324	-5.9592	6.691	-3.2045	6.3354	-4.9854	-2.4002	-4.4277	0.5139	-1.2461	0.4303	0.2816	0.3168	0.5109	0.4703	0.5132	0.2285	0.3023	0.2016	0.2427	0.3499	0.307	0.2126	0.3504	0.2314	0.3203	0.3675	0.2998	0.3812	6.318	1.5903	5.1225	8	265	1.26356159573759	0	1
"266"	8	32	4	0	0	1	17	1	0	5.449	0.5238	-2.8951	-4.0608	-5.5539	-1.1774	-3.7311	8.9284	-4.5506	6.422	-5.2739	8.2051	-4.9339	5.8691	-0.5963	7.8082	3.7073	0.7394	-2.8871	-3.0932	-5.0095	0.333	0.333	0.333	0.333	0.333	0.333	0.333	0.333	0.333	0.333	0.333	0.333	0.333	0.333	0.333	0.333	0.333	0.333	0.333	6.327	1.5636	7.0333	8	266	1.69543210560096	1	0
"267"	8	25	4	0	0	0	12	-1	1	4.085	0.5619	4.1248	4.7375	0.6097	2.0198	-4.323	-0.3051	-10.0327	6.948	1.1576	1.2615	-6.4184	3.2467	2.3367	-10.8216	-4.9122	1.6585	-2.0607	5.8329	2.8467	0.2539	0.3543	0.2111	0.3436	0.28	0.3766	0.2704	0.431	0.3582	0.4884	0.5177	0.3058	0.2432	0.2166	0.4424	0.2527	0.3376	0.2332	0.4082	6.3249	1.7123	5.8028	8	267	1.40732172831197	0	1
"268"	8	60	4	0	0	1	5	-1	1	1.665	2.3202	1.7845	-6.4244	-2.7492	9.3915	-1.2278	-4.596	-2.0848	-0.4151	1.934	-6.7397	0.1559	-0.1328	-0.8344	4.9166	-4.5969	11.5346	-1.534	-7.1084	4.8946	0.333	0.333	0.333	0.333	0.333	0.333	0.333	0.333	0.333	0.333	0.333	0.333	0.333	0.333	0.333	0.333	0.333	0.333	0.333	6.327	1.5297	3.1987	8	268	0.509825123432407	0	1
"269"	8	17	4	-1	-1.1	1	5	-1	1	1.502	-0.4462	-0.5707	-0.4247	-6.9339	6.1076	-4.7867	1.9062	-0.7549	-10.4595	0.856	-6.1328	10.7034	-7.8228	-3.3054	-1.3022	-2.9157	-0.5905	4.848	-1.028	2.1116	0.333	0.333	0.333	0.333	0.333	0.333	0.333	0.333	0.333	0.333	0.333	0.333	0.333	0.333	0.333	0.333	0.333	0.333	0.333	6.327	1.4619	2.9699	8	269	0.406797553341943	0	1
"270"	8	52	4	-1	-1.1	0	8	-1	1	2.595	3.5796	-11.0187	-6.4067	-3.0431	-0.4988	4.1026	5.826	3.6795	1.1889	-2.7134	-2.9119	-3.7815	-4.2197	-11.2356	-4.7588	3.2406	3.9425	0.6041	-2.102	2.6714	0.5296	0.2478	0.3605	0.3346	0.3998	0.204	0.3176	0.5292	0.2485	0.3829	0.2903	0.406	0.2308	0.2582	0.4144	0.2083	0.4786	0.208	0.2721	6.3211	1.5227	4.1285	8	270	0.953586516617852	0	1
"271"	8	33	4	1	1.1	1	17	-1	0	5.581	1.7079	-0.0256	2.2125	2.6264	11.9129	2.0677	-0.2755	-1.7449	1.2334	-3.8821	9.5434	6.4781	-4.4003	-5.0434	-2.1202	2.3741	-8.65	5.9084	-1.2104	3.705	0.333	0.333	0.333	0.333	0.333	0.333	0.333	0.333	0.333	0.333	0.333	0.333	0.333	0.333	0.333	0.333	0.333	0.333	0.333	6.327	1.4986	7.0821	8	271	1.7193679718063	0	1
"272"	8	36	4	-4	-4.4	0	7	-1	1	1.82	-2.147	-6.9088	-11.8899	-6.0513	-6.3199	-8.4173	-2.0185	1.9271	-4.281	-4.2687	-0.6077	-10.6713	-13.4349	1.3576	-10.2739	-0.9585	4.298	-1.4746	-7.0918	2.2483	0.3636	0.2294	0.4061	0.2149	0.3455	0.2366	0.3645	0.4673	0.2917	0.4334	0.3006	0.2307	0.3407	0.2055	0.3734	0.5242	0.2701	0.3454	0.384	6.3277	1.522	3.3539	8	272	0.598836501088704	0	1
"273"	8	43	4	-4	-4.4	1	11	-1	1	3.49	-3.3881	-7.3917	-14.7139	-3.6021	-4.977	-11.9867	-2.7746	-4.323	-7.6182	-4.5936	-9.2964	-11.7242	-4.8547	1.9122	-0.3396	-1.5507	-5.5854	-0.3379	4.4174	3.2857	0.333	0.333	0.333	0.333	0.333	0.333	0.333	0.333	0.333	0.333	0.333	0.333	0.333	0.333	0.333	0.333	0.333	0.333	0.333	6.327	1.643	5.1412	8	273	1.24990173621434	0	1
"274"	8	46	4	0	0	1	5	1	0	1.656	0.5892	-9.4725	3.2934	-0.4653	1.6559	1.9689	2.1609	3.8751	-7.7888	-2.3363	-6.8939	-2.5331	9.7217	10.0665	-4.6187	0.5156	1.1756	-2.4202	2.8391	-3.1928	0.333	0.333	0.333	0.333	0.333	0.333	0.333	0.333	0.333	0.333	0.333	0.333	0.333	0.333	0.333	0.333	0.333	0.333	0.333	6.327	1.6747	3.3403	8	274	0.504405055963068	1	0
"275"	8	2	4	-2	-2.2	1	5	1	0	1.488	2.7717	3.6519	-1.3128	2.435	-8.2156	-6.119	-1.2672	7.6942	1.7871	-4.9441	-7.4375	-0.1883	-2.7034	-10.0274	-3.1062	-6.5085	-7.5266	-5.1537	6.3764	-6.0774	0.333	0.333	0.333	0.333	0.333	0.333	0.333	0.333	0.333	0.333	0.333	0.333	0.333	0.333	0.333	0.333	0.333	0.333	0.333	6.327	1.5619	3.0558	8	275	0.3974329364109	1	0
"276"	8	39	4	0	0	0	13	1	1	4.118	-3.8675	-11.1497	0.7855	0.5643	-2.8175	0.7562	4.7968	6.586	-9.0028	7.0813	-1.7769	3.2526	3.974	4.5428	-3.0325	-0.2255	0.8128	-5.4671	-1.2356	4.6052	0.3115	0.4853	0.3169	0.3501	0.2451	0.2183	0.2674	0.5146	0.363	0.3033	0.2544	0.4865	0.2707	0.3504	0.2262	0.4439	0.2056	0.48	0.2417	6.3351	1.4745	5.6022	8	276	1.4153676086056	1	0
"277"	8	18	4	0	0	1	12	1	1	3.878	1.4771	3.8538	1.4187	-4.4091	4.4737	-2.0025	5.4091	-5.0007	-11.2721	-2.5742	-3.6667	-2.8973	-2.44	7.6233	3.0818	5.407	-2.0763	8.1497	2.6467	-6.3577	0.333	0.333	0.333	0.333	0.333	0.333	0.333	0.333	0.333	0.333	0.333	0.333	0.333	0.333	0.333	0.333	0.333	0.333	0.333	6.327	1.4368	5.3286	8	277	1.35531955682046	1	0
"278"	8	50	4	-4	-4.4	0	19	-1	1	6.162	-2.8613	-1.7291	1.5225	-10.4128	-2.872	-3.5605	-7.2177	-0.7133	-0.1957	-5.287	-7.0683	3.1925	-15.1897	-13.8712	-11.4554	-3.8093	-2.9412	0.1176	-2.049	-2.6138	0.2926	0.4515	0.2611	0.47	0.5162	0.3084	0.2661	0.4575	0.2272	0.4417	0.2079	0.4023	0.2886	0.3193	0.2542	0.3634	0.2844	0.3145	0.2015	6.3285	1.6335	7.813	8	278	1.81840140017448	0	1
"279"	8	19	4	1	1.1	1	15	-1	0	4.879	0.7752	5.0035	-0.8209	-7.3544	6.3628	0.3022	2.7435	2.6148	-2.5012	-4.1176	2.8547	-7.5172	-1.3927	5.1108	2.4337	10.9126	-3.0743	11.3643	-1.9158	1.2556	0.333	0.333	0.333	0.333	0.333	0.333	0.333	0.333	0.333	0.333	0.333	0.333	0.333	0.333	0.333	0.333	0.333	0.333	0.333	6.327	1.546	6.4297	8	279	1.5849402808337	0	1
"280"	8	51	4	-2	-2.2	0	10	-1	1	3.197	-0.9289	-8.9114	0.6106	-6.3667	-8.2849	-4.3839	-1.1961	-3.0719	-2.8846	-3.776	-1.8159	2.0929	-13.5969	5.0446	5.7405	-5.6462	4.8409	1.7929	-2.2431	-2.3625	0.2337	0.3465	0.2659	0.5262	0.3235	0.4353	0.2809	0.2312	0.3864	0.2427	0.4067	0.3072	0.3354	0.458	0.3394	0.2252	0.3619	0.2654	0.3472	6.3186	1.4188	4.6311	8	280	1.1622128700777	0	1
"281"	8	5	5	1	1.4	1	9	-1	0	2.96	2.9726	-2.459	-2.8868	2.5453	5.2825	0.7826	0.5399	-0.0398	7.4108	5.3015	4.7739	0.1655	1.9275	12.3525	6.3382	-4.9233	-6.8777	-7.6078	-1.0188	4.5087	0.333	0.333	0.333	0.333	0.333	0.333	0.333	0.333	0.333	0.333	0.333	0.333	0.333	0.333	0.333	0.333	0.333	0.333	0.333	6.327	1.7307	4.7106	8	281	1.08518926833597	0	1
"282"	8	47	5	1	1.4	1	10	1	1	3.255	5.3966	-2.7383	0.1919	-0.3006	3.8183	9.9025	0.9416	7.4432	3.3552	0.8129	-4.3869	5.5643	-5.3517	-0.032	7.2502	6.9368	3.4871	-4.0118	-3.289	-8.4761	0.333	0.333	0.333	0.333	0.333	0.333	0.333	0.333	0.333	0.333	0.333	0.333	0.333	0.333	0.333	0.333	0.333	0.333	0.333	6.327	1.4183	4.6891	8	282	1.18019227566053	1	0
