"subNo"	"index"	"block"	"level"	"mean"	"periodicity"	"nEvents"	"answer"	"isCorrect"	"rt"	"s1"	"s2"	"s3"	"s4"	"s5"	"s6"	"s7"	"s8"	"s9"	"s10"	"s11"	"s12"	"s13"	"s14"	"s15"	"s16"	"s17"	"s18"	"s19"	"s20"	"t1"	"t2"	"t3"	"t4"	"t5"	"t6"	"t7"	"t8"	"t9"	"t10"	"t11"	"t12"	"t13"	"t14"	"t15"	"t16"	"t17"	"t18"	"t19"	"seqDuration"	"startInterval"	"trialDuration"	"pID"	"Trial"	"rtLog"	"right"	"left"
"1"	5	15	1	-4	-10.7	1	4	-1	1	1.3	-13.5093	-15.2733	-14.1138	-7.5041	-19.429	-15.9516	-6.3642	-2.6373	-10.2715	-12.0675	-4.0347	-7.2127	-21.9597	-6.4697	-8.9891	-9.2812	-10.4007	-14.2561	-5.152	-9.7275	0.333	0.333	0.333	0.333	0.333	0.333	0.333	0.333	0.333	0.333	0.333	0.333	0.333	0.333	0.333	0.333	0.333	0.333	0.333	6.327	1.6189	2.9342	5	1	0.262364264467491	0	1
"2"	5	44	1	-2	-5.35	1	8	-1	1	2.336	-8.7132	-4.2747	-10.4056	-3.2086	-7.5149	-12.012	-8.0675	-5.1069	2.8925	-5.2821	-2.2236	-0.7931	2.3009	-8.6202	-3.4682	-6.8973	-7.5069	-12.5099	-9.8989	5.4242	0.333	0.333	0.333	0.333	0.333	0.333	0.333	0.333	0.333	0.333	0.333	0.333	0.333	0.333	0.333	0.333	0.333	0.333	0.333	6.327	1.7116	4.0536	5	2	0.848440064965981	0	1
"3"	5	38	1	-1	-2.675	0	16	1	0	5.133	-2.0492	-0.9782	1.1024	-7.8143	-9.6288	-1.8355	-8.5329	-2.4867	1.1192	-1.4809	-11.8725	-4.9014	-3.8761	4.0664	-3.0401	-0.7156	-8.9795	-2.5522	3.5312	8.1357	0.2896	0.3823	0.3388	0.2956	0.207	0.4806	0.3541	0.2676	0.4175	0.2605	0.4301	0.3311	0.363	0.3083	0.2002	0.4125	0.2538	0.4783	0.2525	6.3233	1.6601	6.8001	5	3	1.63569028357817	1	0
"4"	5	32	1	0	0	1	6	1	1	1.908	-1.0602	6.2699	-3.3925	1.9989	1.0875	-11.1873	4.5683	-1.3122	3.2281	1.7653	-2.022	-5.266	8.3963	-4.4624	-1.5621	8.2601	-0.4247	0.5683	2.559	-8.1265	0.333	0.333	0.333	0.333	0.333	0.333	0.333	0.333	0.333	0.333	0.333	0.333	0.333	0.333	0.333	0.333	0.333	0.333	0.333	6.327	1.6125	3.525	5	4	0.646055573026095	1	0
"5"	5	29	1	-4	-10.7	1	4	-1	1	1.263	-13.6284	-23.0844	-2.8414	-8.5938	-13.2613	-15.9473	-14.8282	-18.6198	-7.7213	-10.8184	-9.3949	-8.5501	-5.8384	-7.6244	-13.1066	-7.1377	-10.5125	-4.1601	-12.015	-7.7689	0.333	0.333	0.333	0.333	0.333	0.333	0.333	0.333	0.333	0.333	0.333	0.333	0.333	0.333	0.333	0.333	0.333	0.333	0.333	6.327	1.5901	2.8472	5	5	0.233489843368354	0	1
"6"	5	69	1	2	5.35	0	5	1	1	1.322	3.7314	6.362	-2.2305	9.1952	-0.5964	9.0055	10.6304	1.2583	3.9512	-4.219	-0.661	12.7128	6.0998	5.4108	14.6586	6.7911	4.9541	9.5974	4.4084	4.986	0.2024	0.2353	0.4124	0.2171	0.4535	0.3933	0.2866	0.2519	0.383	0.3534	0.2069	0.2654	0.3733	0.2976	0.5312	0.4898	0.3148	0.4537	0.2083	6.3301	1.4316	2.7724	5	6	0.279145741429495	1	0
"7"	5	45	1	-1	-2.675	1	8	-1	1	2.537	0.5882	-0.4292	-0.544	-6.0332	-10.1629	-6.4996	-14.6607	-5.3546	2.3634	-0.0108	0.5846	-3.7982	-4.6244	6.5834	-5.5963	1.4965	-1.8953	4.3794	-3.3244	-5.5151	0.333	0.333	0.333	0.333	0.333	0.333	0.333	0.333	0.333	0.333	0.333	0.333	0.333	0.333	0.333	0.333	0.333	0.333	0.333	6.327	1.5665	4.1209	5	7	0.930982280617145	0	1
"8"	5	28	1	4	10.7	0	4	1	1	1.185	11.2326	1.4619	18.1573	6.9338	11.9616	13.9638	11.5533	9.5734	6.158	19.4372	13.3044	10.4606	7.7384	17.0213	3.5326	14.6101	6.1513	7.509	7.6425	16.6143	0.2705	0.4052	0.2172	0.4374	0.3816	0.2715	0.2012	0.3436	0.3081	0.417	0.2251	0.3185	0.5158	0.308	0.4494	0.2953	0.256	0.4683	0.2444	6.3343	1.4137	2.6189	5	8	0.169742774587095	1	0
"9"	5	34	1	2	5.35	1	6	1	1	1.87	4.0386	1.679	4.7783	-0.2299	6.514	10.7532	5.925	7.1567	7.1782	0.9399	9.2048	-1.4269	3.18	3.9961	14.9202	-5.3607	12.6923	6.8871	4.6709	11.3224	0.333	0.333	0.333	0.333	0.333	0.333	0.333	0.333	0.333	0.333	0.333	0.333	0.333	0.333	0.333	0.333	0.333	0.333	0.333	6.327	1.7201	3.6045	5	9	0.625938430866495	1	0
"10"	5	4	1	0	0	1	7	1	0	2.327	1.0597	1.3756	-5.2717	7.687	0.5496	-6.2882	-6.893	-4.5107	-5.0219	1.5241	-2.8534	-1.4612	-5.7635	7.6094	-0.8024	0.3491	10.2417	2.7231	2.1019	3.6439	0.333	0.333	0.333	0.333	0.333	0.333	0.333	0.333	0.333	0.333	0.333	0.333	0.333	0.333	0.333	0.333	0.333	0.333	0.333	6.327	1.6237	3.9607	5	10	0.844579884320155	1	0
"11"	5	24	1	-1	-2.675	0	5	-1	1	1.364	-5.5582	-7.1692	8.7308	-4.112	-4.4186	-3.485	-2.6721	-1.2365	5.7232	1.1147	4.3415	-2.1462	-9.5035	0.1088	1.0474	-3.871	-11.3257	-3.2178	-8.2256	-6.2507	0.2312	0.2861	0.3391	0.2132	0.3391	0.4308	0.2599	0.4074	0.3647	0.4662	0.2498	0.2239	0.3582	0.3083	0.4163	0.2532	0.452	0.2833	0.4431	6.3258	1.5684	2.9484	5	11	0.31042155942127	0	1
"12"	5	63	1	4	10.7	1	3	1	1	0.928	11.6735	14.2996	4.0787	15.7459	17.1989	17.4748	16.4078	0.8558	8.1604	11.0533	2.8189	9.8362	6.89	11.0343	5.6944	16.4713	12.8026	12.9531	11.8158	6.5986	0.333	0.333	0.333	0.333	0.333	0.333	0.333	0.333	0.333	0.333	0.333	0.333	0.333	0.333	0.333	0.333	0.333	0.333	0.333	6.327	1.5184	2.4624	5	12	-0.0747235461959364	1	0
"13"	5	30	1	-2	-5.35	1	20	-1	1	7.1	-9.4757	3.2099	-6.6943	-13.3071	-3.1275	-2.4181	-1.091	-11.9667	-9.4929	-12.3108	-1.0068	2.4121	-7.5318	-4.3461	2.4293	-7.7724	-6.9435	-6.7245	-3.3965	-7.3005	0.333	0.333	0.333	0.333	0.333	0.333	0.333	0.333	0.333	0.333	0.333	0.333	0.333	0.333	0.333	0.333	0.333	0.333	0.333	6.327	1.5884	8.7006	5	13	1.96009478404727	0	1
"14"	5	42	1	4	10.7	0	3	1	1	0.844	14.1094	7.6974	8.4518	3.0106	7.6649	16.5342	9.22	2.6914	1.5591	13.7778	11.0665	9.5284	9.6384	7.5347	15.0851	14.9603	12.3911	14.836	14.4629	20.1047	0.3716	0.2266	0.3815	0.2615	0.4317	0.2396	0.3923	0.2656	0.4875	0.2491	0.3755	0.4137	0.3807	0.236	0.3263	0.2703	0.3415	0.473	0.2036	6.3276	1.5255	2.3784	5	14	-0.16960278438618	1	0
"15"	5	27	1	2	5.35	0	6	1	1	1.65	5.5124	-1.2704	5.7242	5.7133	10.4297	16.5616	3.7191	10.2335	6.5897	10.3918	3.3695	5.6729	3.631	-2.1455	3.1439	0.1885	-2.3078	11.923	9.1506	-0.2354	0.2585	0.3028	0.3847	0.333	0.2419	0.453	0.2387	0.3431	0.2033	0.4719	0.2573	0.3854	0.2021	0.3624	0.4801	0.3684	0.2277	0.5039	0.2992	6.3172	1.7312	3.3838	5	15	0.500775287912489	1	0
"16"	5	43	1	-4	-10.7	1	2	-1	1	0.648	-14.225	-6.8456	-12.3326	-10.0849	-9.2575	-0.834	-16.2461	-11.4198	-11.846	-15.3236	-6.4356	-4.8016	-9.8967	-11.2383	-11.3085	-8.917	-3.6707	-12.3739	-15.4375	-23.1685	0.333	0.333	0.333	0.333	0.333	0.333	0.333	0.333	0.333	0.333	0.333	0.333	0.333	0.333	0.333	0.333	0.333	0.333	0.333	6.327	1.5982	2.249	5	16	-0.433864582629862	0	1
"17"	5	10	1	-1	-2.675	0	6	-1	1	1.889	2.1576	-1.3467	-1.3593	2.0133	-9.1839	-10.2631	0.5594	-11.0355	-0.0833	-4.7662	-0.229	0.9896	-2.1601	2.7646	1.106	-7.2765	-11.0829	3.3336	-7.5641	-0.4726	0.2592	0.4194	0.2806	0.3074	0.2624	0.4294	0.404	0.5164	0.2779	0.324	0.2096	0.3767	0.2465	0.4802	0.2324	0.2631	0.3974	0.3375	0.3009	6.3252	1.7272	3.6232	5	17	0.636047588519372	0	1
"18"	5	41	1	2	5.35	0	4	1	1	1.222	1.5102	1.2666	6.9408	12.7502	10.1694	10.8016	14.7922	6.2299	6.7461	8.2531	-1.858	-3.9876	8.7352	8.4295	-0.0746	0.0981	5.0342	4.6208	3.0782	2.3919	0.373	0.2112	0.4779	0.3637	0.4443	0.2237	0.3146	0.4474	0.244	0.2808	0.3576	0.5228	0.2738	0.2125	0.2794	0.2133	0.2413	0.4794	0.3568	6.3176	1.4925	2.723	5	18	0.200488860749404	1	0
"19"	5	61	1	1	2.675	1	10	1	1	3.278	-0.1362	7.1158	3.2358	9.6747	-5.0128	0.7023	0.8799	13.0215	-0.5406	1.5872	-0.5375	1.7741	9.3621	-1.3321	-1.8851	7.4663	2.0612	-6.2717	7.8469	5.2231	0.333	0.333	0.333	0.333	0.333	0.333	0.333	0.333	0.333	0.333	0.333	0.333	0.333	0.333	0.333	0.333	0.333	0.333	0.333	6.327	1.4912	4.7785	5	19	1.18723348032164	1	0
"20"	5	47	1	1	2.675	1	10	1	1	3.148	0.779	-9.1326	10.1843	0.0202	2.4586	3.9913	-3.6574	-1.2488	10.8736	6.5931	-1.0054	7.8139	8.7871	-3.8748	1.887	2.8042	4.254	3.593	2.0335	4.9963	0.333	0.333	0.333	0.333	0.333	0.333	0.333	0.333	0.333	0.333	0.333	0.333	0.333	0.333	0.333	0.333	0.333	0.333	0.333	6.327	1.6515	4.8153	5	20	1.14676733055516	1	0
"21"	5	56	1	4	10.7	0	15	1	1	4.747	6.8478	16.3417	16.5327	11.6285	11.222	4.77	13.5302	5.3863	6.0242	9.1149	4.2924	17.4687	10.1962	10.8594	13.8416	3.5976	15.056	5.1401	15.3068	18.5812	0.3772	0.5079	0.2237	0.2771	0.4143	0.2018	0.3037	0.2013	0.3741	0.3285	0.532	0.2067	0.3173	0.3631	0.5052	0.2937	0.2288	0.3962	0.269	6.3216	1.6806	6.4479	5	21	1.55751283956918	1	0
"22"	5	5	1	1	2.675	1	10	1	1	3.098	7.0058	-0.8032	-2.8712	11.3936	2.5452	4.5839	7.8568	6.7743	5.7729	1.2696	0.1556	4.0603	7.0848	-8.2607	-1.3994	1.1996	6.5402	6.5502	-5.0415	-1.7972	0.333	0.333	0.333	0.333	0.333	0.333	0.333	0.333	0.333	0.333	0.333	0.333	0.333	0.333	0.333	0.333	0.333	0.333	0.333	6.327	1.4926	4.5983	5	22	1.13075674199468	1	0
"23"	5	12	1	1	2.675	0	20	1	1	6.584	7.0273	7.2105	-0.7886	1.5269	-2.2876	6.7074	2.5172	2.6413	0.0272	-8.6664	-0.5956	10.9505	6.2434	0.9556	4.3289	6.0832	10.1375	2.3682	0.8652	-5.2574	0.3945	0.3679	0.2621	0.2193	0.2851	0.2052	0.2729	0.3859	0.3345	0.2342	0.4641	0.227	0.4989	0.4282	0.2299	0.3836	0.4455	0.4746	0.2053	6.3187	1.6308	8.2182	5	23	1.88464246337477	1	0
"24"	5	51	1	-2	-5.35	0	4	-1	1	1.23	-7.2949	-5.5906	4.8534	0.328	0.0206	-1.1071	-2.8142	-9.2272	-10.1534	-11.1711	-9.3709	-11.1969	-5.4099	-6.6386	1.7234	-7.6215	-11.2325	-0.9492	-2.1942	-10.505	0.3729	0.2179	0.4607	0.2169	0.4537	0.2564	0.4394	0.27	0.4012	0.3152	0.3942	0.2959	0.3847	0.2221	0.4816	0.2054	0.3016	0.4383	0.2071	6.335	1.5111	2.7473	5	24	0.207014169384326	0	1
"25"	5	6	1	2	5.35	1	3	1	1	0.843	8.3625	8.932	-4.6189	-1.0791	11.0274	5.8616	3.3457	10.7449	1.5653	2.6088	12.7168	-2.4891	8.0833	3.0148	2.6458	3.4021	6.4419	3.7589	8.1225	14.1831	0.333	0.333	0.333	0.333	0.333	0.333	0.333	0.333	0.333	0.333	0.333	0.333	0.333	0.333	0.333	0.333	0.333	0.333	0.333	6.327	1.4863	2.3269	5	25	-0.170788320980282	1	0
"26"	5	9	1	-2	-5.35	0	8	-1	1	2.765	-1.8299	-10.2891	7.969	-8.9423	0.8915	-9.1913	-6.0646	-6.6896	1.4489	-0.6679	-3.7326	-9.5702	-9.6819	-3.8891	-10.4788	-4.9672	-3.5401	-12.731	-6.7817	-8.3497	0.3245	0.3683	0.4881	0.4039	0.3638	0.2827	0.3652	0.2166	0.5312	0.3808	0.3228	0.2671	0.2377	0.2818	0.2015	0.3954	0.3661	0.2987	0.2295	6.3258	1.5109	4.2825	5	26	1.0170406349743	0	1
"27"	5	46	1	0	0	1	4	1	0	1.121	0.8397	0.4897	0.7788	-0.3328	5.0189	3.4075	-0.3876	-6.9998	4.1736	4.4997	-6.6193	-3.8446	-9.2145	3.1442	-2.2224	3.6	10.902	-3.2205	-6.943	1.8933	0.333	0.333	0.333	0.333	0.333	0.333	0.333	0.333	0.333	0.333	0.333	0.333	0.333	0.333	0.333	0.333	0.333	0.333	0.333	6.327	1.4687	2.5882	5	27	0.114221144090023	1	0
"28"	5	21	1	4	10.7	1	4	1	1	1.036	11.4709	8.1122	8.6776	9.3467	9.926	21.0705	16.9765	16.2961	12.6142	8.0988	3.6926	7.0509	9.9352	13.9943	6.5616	1.2754	11.9981	4.8443	14.6539	16.1759	0.333	0.333	0.333	0.333	0.333	0.333	0.333	0.333	0.333	0.333	0.333	0.333	0.333	0.333	0.333	0.333	0.333	0.333	0.333	6.327	1.7003	2.7374	5	28	0.0353671438372913	1	0
"29"	5	33	1	1	2.675	1	16	1	1	5.246	0.8003	4.8505	2.9535	8.405	3.8667	-2.7182	0.1225	-0.1596	2.1144	-3.3757	1.174	2.7917	9.2044	8.5421	-9.0447	8.126	11.8851	4.8188	-1.1905	0.67	0.333	0.333	0.333	0.333	0.333	0.333	0.333	0.333	0.333	0.333	0.333	0.333	0.333	0.333	0.333	0.333	0.333	0.333	0.333	6.327	1.5246	6.7805	5	29	1.65746588144468	1	0
"30"	5	20	1	2	5.35	1	3	1	1	0.835	5.092	13.5351	8.7258	10.5513	1.2725	7.965	5.9516	6.2348	7.4558	8.1003	12.4764	5.0855	7.9886	-4.0615	5.2726	2.4781	0.4362	-1.3393	-4.2064	9.8737	0.333	0.333	0.333	0.333	0.333	0.333	0.333	0.333	0.333	0.333	0.333	0.333	0.333	0.333	0.333	0.333	0.333	0.333	0.333	6.327	1.4353	2.286	5	30	-0.180323554131282	1	0
"31"	5	26	1	1	2.675	0	9	1	1	2.583	-0.9592	10.3675	6.1496	0.3476	-2.8147	-1.6245	5.1555	4.0814	-1.0663	-1.5513	9.7116	6.8012	4.4511	-5.5719	3.4957	9.5865	-5.8557	5.4082	6.7651	1.8307	0.2838	0.3898	0.2248	0.4243	0.2149	0.4984	0.2309	0.3004	0.215	0.4305	0.3559	0.5191	0.2064	0.2946	0.2213	0.252	0.3547	0.5236	0.3851	6.3255	1.5586	4.1509	5	31	0.948951514113703	1	0
"32"	5	54	1	1	2.675	0	12	1	1	3.692	-1.3848	-4.9742	8.4631	-0.6564	9.7603	0.9445	-5.2896	4.1778	3.7729	10.6044	2.0704	2.101	2.1289	9.3699	-5.8535	2.9446	8.7346	1.6854	1.4209	2.3288	0.316	0.3993	0.3208	0.4657	0.2264	0.3768	0.3025	0.2621	0.2322	0.3351	0.2413	0.3702	0.4459	0.2254	0.3433	0.4294	0.273	0.3335	0.4229	6.322	1.5724	5.2763	5	32	1.30616831664061	1	0
"33"	5	49	1	4	10.7	1	3	1	1	0.672	10.9762	16.3129	9.6641	9.9502	12.3664	15.2713	3.703	11.8258	7.4908	10.6439	15.7864	5.1905	9.2794	0.4308	16.3452	1.5213	13.8852	19.0665	12.5898	11.1621	0.333	0.333	0.333	0.333	0.333	0.333	0.333	0.333	0.333	0.333	0.333	0.333	0.333	0.333	0.333	0.333	0.333	0.333	0.333	6.327	1.4564	2.1398	5	33	-0.397496938458987	1	0
"34"	5	52	1	-1	-2.675	0	7	-1	1	2.479	-4.8803	1.2312	-5.4762	-5.3902	-11.9196	6.0697	-7.3129	-3.5875	-1.9165	-9.4442	5.5576	-2.222	0.5639	-0.5152	-1.088	-0.4446	-0.8634	-11.9123	3.7942	-4.8012	0.3416	0.3728	0.439	0.4016	0.2921	0.5312	0.4068	0.2497	0.3849	0.2878	0.2606	0.4963	0.208	0.2721	0.2086	0.2957	0.2658	0.3668	0.2484	6.3297	1.5775	4.0628	5	34	0.907855253053053	0	1
"35"	5	55	1	2	5.35	0	13	1	1	4.414	7.3248	-1.1322	3.3567	7.352	-0.4246	2.8693	3.5703	11.3949	1.6006	1.8571	8.8622	5.1166	2.4273	17.0258	11.571	2.1619	14.004	6.7634	1.7283	1.4256	0.4052	0.2644	0.2106	0.4358	0.2188	0.2563	0.3646	0.3915	0.3248	0.4943	0.2741	0.3647	0.4229	0.2451	0.2106	0.2893	0.3238	0.5163	0.3186	6.3315	1.6793	6.0984	5	35	1.48478130783454	1	0
"36"	5	50	1	-4	-10.7	0	6	-1	1	1.603	-7.0503	-17.146	-18.3439	-3.1021	-5.5619	-16.661	-9.3768	-14.3579	-12.7253	-4.2648	-13.3965	-7.2224	-14.8796	-10.4383	-16.7229	-14.3942	-3.2319	-10.7868	-7.1255	-6.9878	0.2891	0.419	0.2711	0.3202	0.2797	0.3054	0.4219	0.4954	0.2678	0.2145	0.5092	0.2844	0.2097	0.3979	0.3295	0.469	0.3358	0.2633	0.2342	6.3172	1.5297	3.1374	5	36	0.471876873627416	0	1
"37"	5	48	1	2	5.35	1	7	1	1	2.011	5.0082	-8.7887	6.9584	2.8505	2.2373	6.5742	7.4146	4.7079	-3.8787	6.6915	0.8062	9.8301	5.4531	5.1139	8.8398	12.5578	5.2571	12.0627	9.7189	7.6175	0.333	0.333	0.333	0.333	0.333	0.333	0.333	0.333	0.333	0.333	0.333	0.333	0.333	0.333	0.333	0.333	0.333	0.333	0.333	6.327	1.5045	3.5282	5	37	0.698632110790515	1	0
"38"	5	3	1	-1	-2.675	1	4	-1	1	1.293	-2.8903	-10.5064	-1.0354	1.2765	-5.3061	-2.227	-9.1427	-5.794	5.2847	-7.7261	-2.8491	-1.6308	-9.7681	9.3965	3.6198	-4.2472	-2.9944	0.437	-5.6418	-1.0045	0.333	0.333	0.333	0.333	0.333	0.333	0.333	0.333	0.333	0.333	0.333	0.333	0.333	0.333	0.333	0.333	0.333	0.333	0.333	6.327	1.4481	2.744	5	38	0.25696509978972	0	1
"39"	5	68	1	1	2.675	0	3	1	1	0.825	3.5972	5.2523	0.2792	5.6199	4.0816	6.2748	2.9278	8.4006	-3.2	6.6965	1.614	-1.2956	8.4454	0.2023	5.7357	8.4156	-6.4766	8.1671	-9.2151	-1.5224	0.2016	0.3096	0.4289	0.2457	0.3768	0.2738	0.2125	0.3619	0.4144	0.3068	0.2589	0.5296	0.2245	0.2734	0.5062	0.3766	0.311	0.4412	0.2753	6.3288	1.701	2.5263	5	39	-0.192371892647456	1	0
"40"	5	23	1	-2	-5.35	0	3	-1	1	0.818	-4.8585	-7.3919	-3.4099	-0.7777	-1.821	-3.3504	-1.4487	-1.8693	-6.9301	-3.0969	-12.8207	-0.364	-10.9987	2.1048	0.8415	-7.1194	-7.794	-15.9259	-12.8908	-6.8828	0.2024	0.375	0.2721	0.2046	0.4795	0.3753	0.2724	0.3782	0.2086	0.3438	0.2097	0.4037	0.4518	0.394	0.325	0.2731	0.4222	0.4626	0.273	6.3267	1.5916	2.4187	5	40	-0.20089294237939	0	1
"41"	5	67	1	0	0	0	11	-1	1	3.384	-0.5769	-3.4515	4.2857	0.7502	1.4852	2.2384	1.0809	-0.1085	-0.7023	-5.877	-4.8082	0.6919	10.849	-3.5305	-4.4264	4.1892	-2.9856	-3.1059	10.6849	-8.1326	0.2858	0.3827	0.4414	0.371	0.445	0.3228	0.2542	0.3775	0.2464	0.2056	0.2366	0.3095	0.454	0.2696	0.2419	0.3949	0.3444	0.2445	0.4931	6.321	1.5651	4.9513	5	41	1.21905844174398	0	1
"42"	5	18	1	0	0	1	2	1	1	0.656	3.435	-3.158	5.497	-10.7929	-3.7527	5.3823	-2.1969	9.3232	-4.8456	-3.2604	-3.7453	5.8489	4.6099	-3.0538	0.1082	3.5585	-0.4418	-3.568	-3.4437	4.7691	0.333	0.333	0.333	0.333	0.333	0.333	0.333	0.333	0.333	0.333	0.333	0.333	0.333	0.333	0.333	0.333	0.333	0.333	0.333	6.327	1.6064	2.2739	5	42	-0.421594490038048	1	0
"43"	5	36	1	-4	-10.7	0	3	-1	1	0.662	-11.0056	-15.9597	-13.5039	-14.7883	-21.8628	-7.5367	-0.2276	-5.642	-11.7455	-12.9262	-17.1793	-10.5637	-5.6477	-12.5699	-9.1188	-12.7945	-7.357	-4.4843	-8.4931	-9.3283	0.2025	0.4518	0.3732	0.2517	0.2141	0.482	0.371	0.2243	0.3325	0.2647	0.3474	0.3878	0.2586	0.2888	0.3724	0.2067	0.4565	0.5132	0.3361	6.3351	1.4465	2.1296	5	43	-0.412489723045129	0	1
"44"	5	70	1	4	10.7	0	4	1	1	1.031	11.4684	4.628	12.9263	13.2406	13.7306	6.3889	3.5772	15.0766	19.7066	10.2984	9.1337	15.0846	18.8095	10.6065	6.4612	14.1959	2.7724	14.4747	8.4994	4.8395	0.4015	0.2633	0.2092	0.4177	0.3215	0.253	0.224	0.471	0.3335	0.2996	0.3288	0.4495	0.2785	0.3121	0.2665	0.4446	0.3502	0.3212	0.3839	6.3295	1.6232	2.6652	5	44	0.0305292050348228	1	0
"45"	5	31	1	-1	-2.675	1	2	-1	1	0.525	-7.4807	-6.376	-1.3149	-6.1248	2.0292	3.155	-0.9796	0.5422	5.6541	-5.6088	-0.8641	-1.8392	3.0823	-7.8	-0.2749	-7.9249	-16.2441	-1.6659	-0.5514	-3.9936	0.333	0.333	0.333	0.333	0.333	0.333	0.333	0.333	0.333	0.333	0.333	0.333	0.333	0.333	0.333	0.333	0.333	0.333	0.333	6.327	1.4413	1.9754	5	45	-0.644357016390513	0	1
"46"	5	53	1	0	0	0	14	-1	0	4.395	0.815	-10.0692	5.9951	-2.8121	-5.1209	-7.4524	3.832	3.5098	-1.2535	-0.0904	-6.834	3.0056	1.8695	0.2535	-3.7624	5.3449	1.4551	11.2424	-0.9185	1.9502	0.2785	0.2044	0.2554	0.3156	0.3969	0.2457	0.2979	0.2594	0.5065	0.2296	0.3044	0.3716	0.3458	0.4206	0.4693	0.5118	0.2654	0.2962	0.3572	6.3323	1.6536	6.0629	5	46	1.48046753113714	0	1
"47"	5	17	1	-1	-2.675	1	12	-1	1	3.976	1.2533	-11.6213	-3.0963	-2.8376	-2.5583	4.2132	0.5191	-0.111	-9.6373	-6.0704	-4.9978	-4.6815	6.3756	3.2889	-11.6894	-7.1794	-3.3844	-3.9845	3.3045	-1.043	0.333	0.333	0.333	0.333	0.333	0.333	0.333	0.333	0.333	0.333	0.333	0.333	0.333	0.333	0.333	0.333	0.333	0.333	0.333	6.327	1.4824	5.4765	5	47	1.38027628879433	0	1
"48"	5	11	1	0	0	0	7	1	1	2.372	-4.1077	4.3272	-4.3129	3.9637	-1.5514	2.4089	5.3012	4.2299	7.7551	-1.7873	-9.7274	-0.0658	6.2366	0.6072	-0.7408	1.8227	-7.7649	0.7311	2.1609	-8.1036	0.4257	0.519	0.2568	0.2273	0.4036	0.4552	0.2617	0.2161	0.5012	0.3562	0.2993	0.3796	0.2886	0.3414	0.2951	0.2594	0.3918	0.2012	0.2474	6.3267	1.5754	3.9561	5	48	0.863733481135479	1	0
"49"	5	8	1	-4	-10.7	0	12	-1	1	4.063	-10.3173	-6.7553	-5.4886	-3.8244	-16.0588	-7.3591	-11.8096	-0.609	-11.6824	-5.5501	-11.1918	-14.7867	-8.3743	-9.5964	-15.885	-8.0779	-16.9317	-17.3958	-12.9464	-18.815	0.2641	0.5027	0.3226	0.2253	0.3057	0.4663	0.2649	0.2196	0.245	0.3609	0.4411	0.4754	0.2585	0.4264	0.2151	0.2621	0.2088	0.3444	0.5244	6.3334	1.4662	5.5305	5	49	1.40192161700559	0	1
"50"	5	64	1	-4	-10.7	0	3	-1	1	0.776	-13.4108	-8.9748	-11.712	-11.2098	-8.9343	-15.7158	-13.7528	-11.5378	-15.385	-5.1452	-8.1724	-12.9458	-13.6215	-14.3418	-9.2306	-19.584	1.0984	-4.2098	-3.2326	-14.3251	0.322	0.2583	0.4762	0.3202	0.2898	0.4129	0.2348	0.3513	0.4232	0.2142	0.339	0.4316	0.3552	0.2621	0.3986	0.2412	0.4277	0.3057	0.2642	6.3281	1.46	2.2434	5	50	-0.253602758798918	0	1
"51"	5	57	1	-4	-10.7	1	6	-1	1	1.839	-7.2095	-14.4938	-13.9796	-6.543	-22.98	-10.4967	-10.7474	-9.7822	-10.328	-10.3328	-20.0505	-8.1094	-8.3368	-1.2831	-3.5451	-11.2871	-10.521	-12.0332	-14.3191	-7.7918	0.333	0.333	0.333	0.333	0.333	0.333	0.333	0.333	0.333	0.333	0.333	0.333	0.333	0.333	0.333	0.333	0.333	0.333	0.333	6.327	1.5975	3.4397	5	51	0.609221945622184	0	1
"52"	5	25	1	0	0	0	5	1	0	1.597	-2.9819	0.4078	5.1327	-3.0479	7.6842	-6.7901	3.9978	6.4837	3.1339	-2.8176	5.8654	-6.8743	-5.3544	1.8946	-5.9142	5.699	1.4877	1.0454	-6.3907	-4.5685	0.242	0.418	0.376	0.2094	0.3767	0.2438	0.2905	0.5138	0.2078	0.2624	0.3562	0.4988	0.36	0.2268	0.4718	0.3157	0.4649	0.2938	0.2032	6.3314	1.4748	3.0805	5	52	0.468126869232875	1	0
"53"	5	35	1	4	10.7	1	3	1	1	0.831	9.6399	19.6776	3.5934	6.4666	12.0002	10.0225	14.9463	15.7908	9.2207	13.6412	8.0358	-1.1189	14.9251	10.5913	9.1652	11.2726	11.9721	4.7131	9.4026	19.6538	0.333	0.333	0.333	0.333	0.333	0.333	0.333	0.333	0.333	0.333	0.333	0.333	0.333	0.333	0.333	0.333	0.333	0.333	0.333	6.327	1.6274	2.4647	5	53	-0.185125484126689	1	0
"54"	5	40	1	1	2.675	0	9	1	1	2.684	1.5564	-0.9401	4.5447	5.7697	9.2092	-5.7731	-3.2979	4.8722	5.0288	3.1284	3.778	6.2127	7.8262	7.0737	1.8715	-1.0392	9.4127	-10.6105	2.5361	0.819	0.4073	0.2167	0.3729	0.2234	0.4738	0.2111	0.2878	0.4128	0.2324	0.462	0.2923	0.2535	0.4053	0.2997	0.4658	0.2837	0.3454	0.4443	0.2318	6.322	1.5219	4.2013	5	54	0.987308219109435	1	0
"55"	5	37	1	-2	-5.35	0	4	1	0	1.115	-4.7528	-0.5383	0.8866	-12.2484	-7.0121	-5.1626	-12.7599	2.2314	-7.3535	-4.2944	-3.3746	-0.4602	-10.3367	-6.4786	-6.6865	-3.3512	-11.4137	3.6821	-13.1076	-3.0724	0.3794	0.2831	0.3084	0.2043	0.276	0.3852	0.2643	0.3043	0.474	0.2159	0.5008	0.2017	0.4073	0.3403	0.3797	0.5254	0.3208	0.2576	0.2941	6.3226	1.5543	2.6829	5	55	0.108854404912082	1	0
"56"	5	39	1	0	0	0	9	-1	1	2.597	-4.0801	5.5302	-2.5869	-0.5663	4.1718	0.3981	-5.6754	0.3506	0.2102	6.3852	-3.8422	10.1357	2.0592	-4.1852	-6.1252	1.5635	1.334	8.4659	-4.3723	-7.5919	0.2664	0.4989	0.2776	0.2426	0.2677	0.2424	0.4828	0.2618	0.203	0.511	0.2941	0.3753	0.291	0.337	0.3946	0.2211	0.4907	0.3538	0.3248	6.3363	1.5979	4.2144	5	56	0.954356932680611	0	1
"57"	5	1	1	-4	-10.7	1	3	-1	1	0.685	-12.1918	-18.4157	-19.5628	-12.2733	-2.6767	-8.7448	-2.9831	-14.2732	-9.9356	-4.3722	-11.6011	-14.788	-13.6001	-11.0392	-16.8003	-7.93	-8.2294	-2.997	-12.491	-8.5361	0.333	0.333	0.333	0.333	0.333	0.333	0.333	0.333	0.333	0.333	0.333	0.333	0.333	0.333	0.333	0.333	0.333	0.333	0.333	6.327	1.4881	2.1856	5	57	-0.378336440719912	0	1
"58"	5	59	1	-1	-2.675	1	11	1	0	3.469	0.7116	10.3745	-4.9034	-2.7428	-2.6997	-9.5087	-6.0944	-2.0191	3.7366	-6.7904	-9.3624	-10.008	-0.6778	-1.8745	-3.9126	2.1066	-5.3842	-5.7331	-0.8738	0.4586	0.333	0.333	0.333	0.333	0.333	0.333	0.333	0.333	0.333	0.333	0.333	0.333	0.333	0.333	0.333	0.333	0.333	0.333	0.333	6.327	1.5584	5.0367	5	58	1.24386636798761	1	0
"59"	5	65	1	-2	-5.35	0	5	-1	1	1.308	-9.8239	-9.9837	-11.775	-5.5461	1.4708	3.3444	1.4594	-13.5871	-5.5937	0.1131	-6.4925	-9.8189	-2.6986	2.307	-3.1988	-7.6048	-5.3363	-11.1603	-7.3012	-5.8087	0.2573	0.2153	0.3242	0.4067	0.3639	0.2046	0.2381	0.4931	0.3398	0.2677	0.3719	0.254	0.2888	0.2517	0.3763	0.3452	0.532	0.3329	0.4539	6.3176	1.6819	3.0083	5	59	0.268499253035007	0	1
"60"	5	22	1	-4	-10.7	0	6	-1	1	2.075	-6.2051	-4.8549	-20.1428	-2.4056	-14.0497	-7.0982	-14.2679	-5.267	-15.2762	-16.6386	-14.2112	-9.8355	-12.4137	-4.1369	-15.0618	-9.8701	-12.79	-5.1558	-14.9481	-8.8234	0.4841	0.2873	0.4883	0.2003	0.2951	0.326	0.5212	0.2763	0.2074	0.454	0.2429	0.3568	0.2755	0.5198	0.3194	0.2494	0.2101	0.3537	0.2563	6.3239	1.5929	3.6761	5	60	0.729961153682662	0	1
"61"	5	16	1	-2	-5.35	1	7	1	0	2.163	-4.2503	-4.5736	-10.5422	-3.4233	-1.6542	-1.1803	-6.7764	0.5975	-6.1892	-16.4941	-10.2134	-2.2236	-10.927	-4.6018	2.1233	-10.6759	-6.576	-9.6821	2.462	-2.988	0.333	0.333	0.333	0.333	0.333	0.333	0.333	0.333	0.333	0.333	0.333	0.333	0.333	0.333	0.333	0.333	0.333	0.333	0.333	6.327	1.6251	3.7967	5	61	0.771496146970922	1	0
"62"	5	2	1	-2	-5.35	1	10	-1	1	3.035	-5.3482	2.7115	-9.1373	-1.2542	-4.3225	-5.7036	1.959	-9.8262	-2.8581	-9.7938	-9.7859	-1.2048	-8.6308	-1.2261	-0.6904	-14.688	-2.9893	-3.2269	-7.4918	-14.4381	0.333	0.333	0.333	0.333	0.333	0.333	0.333	0.333	0.333	0.333	0.333	0.333	0.333	0.333	0.333	0.333	0.333	0.333	0.333	6.327	1.4946	4.5352	5	62	1.11021142451146	0	1
"63"	5	19	1	1	2.675	1	3	1	1	0.779	1.5046	6.6274	0.0614	-0.8275	-9.2856	-6.3498	3.6062	1.6907	5.878	0.2647	-0.3543	4.949	3.0153	1.4419	6.8387	13.2558	3.1915	4.0191	3.5131	9.3558	0.333	0.333	0.333	0.333	0.333	0.333	0.333	0.333	0.333	0.333	0.333	0.333	0.333	0.333	0.333	0.333	0.333	0.333	0.333	6.327	1.5001	2.2801	5	63	-0.249744233111389	1	0
"64"	5	7	1	4	10.7	1	3	1	1	0.7	10.2609	14.7466	9.0272	11.9403	5.284	18.6511	12.7	11.7307	5.7956	11.8737	0.4759	10.0326	19.001	17.5838	4.6298	15.3031	12.3721	5.9482	7.7711	7.0673	0.333	0.333	0.333	0.333	0.333	0.333	0.333	0.333	0.333	0.333	0.333	0.333	0.333	0.333	0.333	0.333	0.333	0.333	0.333	6.327	1.5066	2.217	5	64	-0.356674943938732	1	0
"65"	5	58	1	-2	-5.35	1	4	-1	1	1.177	-5.9298	-4.0756	2.2204	-2.8077	0.2977	-9.5442	3.1844	0.775	-1.4465	-3.4007	-4.8761	-8.6748	-6.2242	-7.7007	-3.1757	-9.317	-5.0476	-11.9705	-12.597	-15.5161	0.333	0.333	0.333	0.333	0.333	0.333	0.333	0.333	0.333	0.333	0.333	0.333	0.333	0.333	0.333	0.333	0.333	0.333	0.333	6.327	1.6777	2.8606	5	65	0.16296882827814	0	1
"66"	5	62	1	2	5.35	1	6	1	1	1.875	7.7444	2.4892	0.726	1.8999	7.2065	8.3434	6.1513	6.1005	7.6034	6.6379	6.1668	-7.8081	8.0781	11.0799	12.245	3.0808	-0.2543	4.9077	0.122	14.1667	0.333	0.333	0.333	0.333	0.333	0.333	0.333	0.333	0.333	0.333	0.333	0.333	0.333	0.333	0.333	0.333	0.333	0.333	0.333	6.327	1.7086	3.5926	5	66	0.628608659422374	1	0
"67"	5	66	1	-1	-2.675	0	17	1	0	5.552	-2.0222	3.6908	-7.952	-6.0027	-3.8828	-9.4888	0.3349	-3.8241	-12.6906	-7.1191	-4.4987	1.6423	6.6418	-2.4862	-9.1498	-0.5474	3.949	-2.1056	1.7067	-0.9864	0.3694	0.302	0.2627	0.4691	0.3616	0.2017	0.3667	0.2851	0.3991	0.3447	0.2566	0.5035	0.4304	0.2498	0.3153	0.3991	0.2709	0.3076	0.2285	6.3239	1.644	7.2029	5	67	1.7141582232045	1	0
"68"	5	60	1	0	0	1	3	1	1	0.967	2.4866	0.7253	-6.6501	1.1562	1.8666	-3.2125	6.7347	-0.7622	6.7298	-6.6536	3.4724	6.7572	-0.9377	1.4502	4.2773	-12.7526	-0.0041	-1.9836	-4.2513	0.4978	0.333	0.333	0.333	0.333	0.333	0.333	0.333	0.333	0.333	0.333	0.333	0.333	0.333	0.333	0.333	0.333	0.333	0.333	0.333	6.327	1.6676	2.651	5	68	-0.0335567835288428	1	0
"69"	5	13	1	2	5.35	0	5	1	1	1.308	3.5336	7.2982	12.5818	-0.2114	5.5986	5.2213	5.3554	-7.492	3.9154	13.4503	5.6921	5.1988	4.4177	15.4885	3.83	5.3362	2.9091	1.2329	9.6202	4.0293	0.2169	0.405	0.3509	0.2577	0.4833	0.3482	0.2747	0.4332	0.216	0.2882	0.2472	0.4821	0.261	0.2337	0.4745	0.2034	0.523	0.3537	0.269	6.3217	1.5244	2.8418	5	69	0.268499253035007	1	0
"70"	5	14	1	4	10.7	0	5	1	1	1.494	14.7724	6.2115	16.2703	5.2487	12.7313	9.3839	6.5877	5.0239	6.8998	14.079	7.2425	14.1354	7.4593	13.7444	14.2824	12.1284	18.8099	5.5728	2.8616	19.5365	0.4979	0.4219	0.2267	0.2527	0.4743	0.3295	0.2276	0.3128	0.4676	0.2778	0.2239	0.2736	0.531	0.2772	0.2332	0.4624	0.2814	0.2062	0.3554	6.3331	1.7283	3.2282	5	70	0.401457086710626	1	0
"71"	5	2	2	-2	-5.35	1	5	-1	1	1.602	-5.1609	-4.2629	-5.9791	-5.724	-3.2912	-7.3814	-12.4685	0.3974	-5.9036	0.2121	-15.0747	-13.4739	-4.8396	-11.2333	-1.2455	-4.8581	-3.9	6.5636	-2.0211	-6.3239	0.333	0.333	0.333	0.333	0.333	0.333	0.333	0.333	0.333	0.333	0.333	0.333	0.333	0.333	0.333	0.333	0.333	0.333	0.333	6.327	1.4672	3.0692	5	71	0.471252848646168	0	1
"72"	5	58	2	-2	-5.35	1	6	-1	1	1.767	-3.0603	-6.5545	-6.3219	-11.4054	-15.5707	-8.0485	-3.6426	-2.1845	-8.6961	-5.2399	-8.6158	-3.4673	-5.0615	-0.6875	-5.9732	2.9572	-7.6336	-4.6086	6.9212	-10.5497	0.333	0.333	0.333	0.333	0.333	0.333	0.333	0.333	0.333	0.333	0.333	0.333	0.333	0.333	0.333	0.333	0.333	0.333	0.333	6.327	1.6201	3.3843	5	72	0.569283193337559	0	1
"73"	5	3	2	-1	-2.675	1	15	-1	1	4.941	0.8302	-0.2856	-2.0053	-6.363	0.2135	-12.8877	-2.0203	6.5721	-1.3665	1.5081	-8.073	-6.9868	0.8413	6.017	-7.099	-7.6591	-3.8277	-1.1418	-8.3072	-0.6558	0.333	0.333	0.333	0.333	0.333	0.333	0.333	0.333	0.333	0.333	0.333	0.333	0.333	0.333	0.333	0.333	0.333	0.333	0.333	6.327	1.511	6.4755	5	73	1.59756773986361	0	1
"74"	5	63	2	4	10.7	1	4	1	1	1.065	8.6338	5.8784	16.9402	13.4051	4.1458	8.5458	20.8137	13.3569	17.5488	4.4903	6.2083	10.9998	9.5984	13.2628	9.454	3.9824	10.3237	11.3867	8.314	18.4491	0.333	0.333	0.333	0.333	0.333	0.333	0.333	0.333	0.333	0.333	0.333	0.333	0.333	0.333	0.333	0.333	0.333	0.333	0.333	6.327	1.5058	2.5829	5	74	0.0629747991613884	1	0
"75"	5	61	2	1	2.675	1	13	1	1	4.222	4.2531	-2.4264	3.3841	6.9584	-2.2804	1.443	0.1255	3.3223	4.0619	6.7029	10.32	10.179	-3.5451	-1.0752	-3.0441	11.1599	-5.912	7.1903	-0.118	1.814	0.333	0.333	0.333	0.333	0.333	0.333	0.333	0.333	0.333	0.333	0.333	0.333	0.333	0.333	0.333	0.333	0.333	0.333	0.333	6.327	1.5903	5.8228	5	75	1.44030894942613	1	0
"76"	5	43	2	-4	-10.7	1	3	-1	1	0.841	-10.6475	-4.4065	-15.7466	-7.4033	-16.399	-3.3799	-12.3255	-3.9564	-4.4051	-12.0701	-6.1373	-17.1498	-7.4813	-10.198	-11.2016	-18.942	-16.3293	-8.1221	-16.1543	-9.6937	0.333	0.333	0.333	0.333	0.333	0.333	0.333	0.333	0.333	0.333	0.333	0.333	0.333	0.333	0.333	0.333	0.333	0.333	0.333	6.327	1.6226	2.4753	5	76	-0.173163619009189	0	1
"77"	5	28	2	4	10.7	0	3	1	1	0.754	15.6973	9.4137	14.0929	10.6471	10.8111	16.1121	7.6539	10.1003	2.756	9.6445	4.2105	8.6223	8.2179	15.6496	21.6022	10.2257	8.0665	0.8107	13.744	15.7937	0.2616	0.3986	0.354	0.221	0.4686	0.221	0.3831	0.2503	0.4675	0.361	0.2743	0.3207	0.3887	0.2644	0.2039	0.451	0.3087	0.5118	0.2183	6.3285	1.6005	2.3709	5	77	-0.282362910974181	1	0
"78"	5	56	2	4	10.7	0	4	1	1	1.508	12.2201	5.3823	7.5871	12.0503	10.2932	14.378	22.1955	14.8197	5.6859	8.4939	6.1452	20.0719	7.5157	7.8869	2.9487	13.9021	13.4	12.435	5.7098	11.8811	0.3703	0.4068	0.3414	0.5144	0.2225	0.4312	0.227	0.263	0.4953	0.3584	0.3006	0.2208	0.3561	0.2783	0.2404	0.3985	0.2204	0.4153	0.265	6.3258	1.4909	3.0087	5	78	0.410784269585764	1	0
"79"	5	60	2	0	0	1	12	1	1	3.947	4.7242	-4.0191	8.2576	-0.5324	-0.0658	2.9623	-2.8057	-2.4295	0.2339	6.3314	-5.961	-9.7844	-3.6344	-4.8312	-3.8591	2.4759	4.4	2.9638	-2.4498	9.418	0.333	0.333	0.333	0.333	0.333	0.333	0.333	0.333	0.333	0.333	0.333	0.333	0.333	0.333	0.333	0.333	0.333	0.333	0.333	6.327	1.6231	5.5815	5	79	1.37295579668071	1	0
"80"	5	15	2	-4	-10.7	1	6	-1	1	1.852	-10.8454	-8.4733	-10.7727	-7.4444	-21.9353	-14.9554	-8.8277	-11.7259	-5.6499	-10.7583	-8.8775	-3.1348	-4.6593	-11.885	-7.0064	-5.4373	-17.9269	-8.8567	-16.5512	-17.1742	0.333	0.333	0.333	0.333	0.333	0.333	0.333	0.333	0.333	0.333	0.333	0.333	0.333	0.333	0.333	0.333	0.333	0.333	0.333	6.327	1.4606	3.3199	5	80	0.616266136223988	0	1
"81"	5	24	2	-1	-2.675	0	15	-1	1	4.973	1.6413	-8.0109	1.4691	-3.1517	1.9736	6.7814	-7.8645	-3.1167	-4.4491	-0.1948	-7.9821	3.0174	-6.1154	-4.2762	-3.1675	1.2735	-11.5336	-9.6037	-2.6039	3.7167	0.2089	0.4873	0.4517	0.2365	0.3773	0.4739	0.3273	0.2239	0.2932	0.2393	0.4142	0.2859	0.2063	0.5326	0.3191	0.225	0.2738	0.2387	0.5182	6.3331	1.6261	6.6074	5	81	1.6040232797326	0	1
"82"	5	18	2	0	0	1	13	1	0	4.17	0.1561	-6.7438	-3.165	4.1369	-5.6848	-1.4008	3.4554	-0.9574	5.5388	0.244	4.8429	7.1985	-5.3831	1.3407	-7.8898	4.2521	9.236	-4.5365	-6.4285	0.7451	0.333	0.333	0.333	0.333	0.333	0.333	0.333	0.333	0.333	0.333	0.333	0.333	0.333	0.333	0.333	0.333	0.333	0.333	0.333	6.327	1.7049	5.871	5	82	1.42791603581071	1	0
"83"	5	64	2	-4	-10.7	0	4	-1	1	0.892	-7.9622	-18.9385	1.3241	-5.1507	-17.6105	-16.3116	-11.967	-6.0943	-13.3289	-16.0324	-11.4346	-13.2795	-10.7745	-9.8953	-7.3025	-15.4999	-7.7177	-6.7368	-10.6023	-8.8839	0.2157	0.2784	0.3322	0.263	0.464	0.3839	0.2273	0.2816	0.5318	0.409	0.3691	0.281	0.4703	0.2577	0.3641	0.4163	0.2515	0.3147	0.2157	6.3272	1.5803	2.4763	5	83	-0.114289146402128	0	1
"84"	5	62	2	2	5.35	1	14	1	1	4.607	5.9354	4.4728	6.8283	6.9798	3.7056	9.8666	2.7695	8.8891	-0.2908	-2.6689	-2.6417	16.6639	7.4508	4.1691	0.5436	7.8291	12.6615	-1.8017	8.3251	6.3878	0.333	0.333	0.333	0.333	0.333	0.333	0.333	0.333	0.333	0.333	0.333	0.333	0.333	0.333	0.333	0.333	0.333	0.333	0.333	6.327	1.6728	6.2907	5	84	1.52757688595378	1	0
"85"	5	4	2	0	0	1	6	1	1	1.742	-0.1441	-7.0638	7.5782	-0.6799	-0.3586	11.8657	-4.7199	-3.6524	-0.5958	-0.7115	0.6137	6.0488	3.7354	-3.7952	-7.6891	2.9547	-4.5091	-2.161	-1.4665	3.7849	0.333	0.333	0.333	0.333	0.333	0.333	0.333	0.333	0.333	0.333	0.333	0.333	0.333	0.333	0.333	0.333	0.333	0.333	0.333	6.327	1.5492	3.3099	5	85	0.555033878430311	1	0
"86"	5	9	2	-2	-5.35	0	7	-1	1	2.112	-3.1156	-1.5051	-2.6017	-2.1719	-17.4267	-13.0603	-7.3123	-2.0995	-3.2408	-3.733	1.2853	-7.9758	-7.5063	-7.1692	-6.2054	-3.0073	-12.2263	-7.3828	-3.9955	3.3517	0.2515	0.3258	0.2432	0.3352	0.3788	0.4169	0.2422	0.3108	0.4033	0.4927	0.262	0.3818	0.3358	0.261	0.2061	0.4817	0.2003	0.3714	0.4222	6.3228	1.5238	3.6465	5	86	0.747635365844015	0	1
"87"	5	38	2	-1	-2.675	0	6	-1	1	2.172	-4.3591	0.8105	-4.2654	-15.6367	-5.1844	-0.1797	5.5901	-6.9866	-2.2681	2.1457	-0.1432	0.628	0.5227	1.4101	1.5514	-6.5714	-4.1743	-0.0695	-9.1658	-7.4099	0.4956	0.3418	0.3112	0.5069	0.2216	0.4387	0.2746	0.3625	0.2976	0.2514	0.4021	0.3167	0.2706	0.4099	0.2481	0.211	0.2682	0.4692	0.2218	6.3195	1.4621	3.6398	5	87	0.775648402071689	0	1
"88"	5	52	2	-1	-2.675	0	11	1	0	3.394	-6.7273	-7.1982	3.6207	-6.2092	1.2815	-7.6137	-2.496	-4.6063	-5.9389	7.5486	-5.6594	-4.4506	1.8028	-3.7022	-9.7116	-5.0961	-4.9781	-1.0425	8.0504	0.649	0.2645	0.2214	0.3449	0.2093	0.288	0.3426	0.2073	0.2698	0.3611	0.4172	0.4713	0.2623	0.4277	0.3913	0.4283	0.5065	0.2739	0.3743	0.2752	6.3367	1.4576	4.8616	5	88	1.22200916681203	1	0
"89"	5	59	2	-1	-2.675	1	10	-1	1	3.049	-4.777	0.4104	-1.5603	2.2672	-2.9818	-8.6475	0.6894	-4.5282	-10.8466	-8.6327	10.4873	3.7237	-6.2008	-1.2502	-5.2621	-4.2945	-6.5955	-3.5724	-2.0136	1.6466	0.333	0.333	0.333	0.333	0.333	0.333	0.333	0.333	0.333	0.333	0.333	0.333	0.333	0.333	0.333	0.333	0.333	0.333	0.333	6.327	1.515	4.5669	5	89	1.11481366800612	0	1
"90"	5	47	2	1	2.675	1	10	1	1	3.032	2.9308	-5.9835	3.1379	8.2584	7.1013	2.5087	11.438	1.3025	-4.1889	-0.8808	0.077	-2.499	-1.1159	6.4646	0.6855	13.4623	6.0671	4.0932	1.4821	0.2417	0.333	0.333	0.333	0.333	0.333	0.333	0.333	0.333	0.333	0.333	0.333	0.333	0.333	0.333	0.333	0.333	0.333	0.333	0.333	6.327	1.6821	4.7158	5	90	1.10922246778013	1	0
"91"	5	36	2	-4	-10.7	0	3	-1	1	0.787	-7.7363	-18.3867	-5.6577	-1.0821	-8.3676	-8.1649	-12.1138	-6.3681	-20.2336	-11.7573	-8.6781	-8.7582	-7.3579	-6.5468	-12.0166	-15.8367	-19.5246	-10.9637	-12.5677	-13.831	0.2769	0.2182	0.4342	0.2364	0.2983	0.2306	0.5071	0.2342	0.3762	0.5127	0.3104	0.2146	0.298	0.491	0.2779	0.4102	0.2495	0.4689	0.2762	6.3215	1.5061	2.3048	5	91	-0.239527030564734	0	1
"92"	5	22	2	-4	-10.7	0	4	-1	1	1.192	-12.2934	-10.4996	-11.605	-18.9175	-6.2063	-12.6773	-15.2102	-9.3638	-0.0798	-2.6131	-13.5756	-14.4147	-8.5829	-10.2292	-13.6803	-4.2475	-11.581	-8.3565	-19.5479	-10.5483	0.3807	0.4986	0.2521	0.2	0.2967	0.2157	0.35	0.451	0.3	0.2137	0.2823	0.387	0.3502	0.3778	0.3	0.3602	0.4806	0.2004	0.4274	6.3244	1.4167	2.6095	5	92	0.175632568643158	0	1
"93"	5	54	2	1	2.675	0	3	1	1	0.99	-0.9266	7.5557	13.5685	5.4742	3.8083	-4.7579	0.7864	-2.6826	5.7387	-2.8628	0.4035	9.9017	7.1071	1.7087	-2.1589	3.877	-2.7175	5.9413	7.388	-1.912	0.435	0.5075	0.2083	0.5317	0.2286	0.2566	0.2859	0.3298	0.2722	0.3198	0.2876	0.4442	0.3171	0.2016	0.3101	0.4256	0.3725	0.2554	0.3303	6.3197	1.4102	2.4078	5	93	-0.0100503358535015	1	0
"94"	5	51	2	-2	-5.35	0	5	-1	1	1.504	-8.7931	-4.8093	-8.4602	-10.7475	-5.2586	-5.7864	-7.7878	-10.7398	-8.3875	-1.7879	3.3001	-4.5088	-2.637	-14.477	1.1754	-3.358	-13.1025	2.5687	-4.1801	0.0054	0.2207	0.3304	0.2369	0.3413	0.4582	0.357	0.4229	0.3194	0.5289	0.3249	0.227	0.2916	0.402	0.4837	0.3785	0.2141	0.2736	0.2263	0.289	6.3264	1.6381	3.1381	5	94	0.408128225527648	0	1
"95"	5	6	2	2	5.35	1	3	1	1	0.885	5.2556	10.9775	7.5084	-3.2158	3.4036	9.0176	-0.3112	7.7266	2.8443	6.5884	14.5121	13.0559	6.2541	8.4878	-1.4004	2.5757	3.7556	-4.3412	6.2594	6.6956	0.333	0.333	0.333	0.333	0.333	0.333	0.333	0.333	0.333	0.333	0.333	0.333	0.333	0.333	0.333	0.333	0.333	0.333	0.333	6.327	1.4167	2.3024	5	95	-0.122167633974208	1	0
"96"	5	66	2	-1	-2.675	0	8	-1	1	2.596	-7.0265	-4.9976	-4.5981	4.816	-2.3898	0.2812	-13.7196	-3.8049	-6.7551	-7.5062	1.8118	-0.7865	-7.3426	-6.0869	-0.1873	6.7964	-4.1569	2.4885	-3.065	1.6114	0.3055	0.3406	0.2712	0.2404	0.4194	0.2515	0.3758	0.4289	0.206	0.2992	0.494	0.4408	0.2018	0.2877	0.3248	0.4225	0.3787	0.2928	0.3453	6.3268	1.4885	4.0804	5	96	0.953971798841844	0	1
"97"	5	37	2	-2	-5.35	0	4	-1	1	1.252	-5.9857	-1.1886	-14.5382	-3.0623	-6.813	-3.933	-11.3445	-12.5204	-3.7711	-7.1846	1.6848	-11.5627	-8.5409	-6.7879	2.5317	-4.7997	-1.2362	2.8781	-2.3692	-8.6919	0.213	0.4662	0.375	0.332	0.2609	0.209	0.298	0.4528	0.2622	0.2368	0.5297	0.3015	0.3461	0.2726	0.5227	0.31	0.3377	0.3757	0.2314	6.3332	1.6705	2.9359	5	97	0.224742272677907	0	1
"98"	5	31	2	-1	-2.675	1	6	-1	1	1.989	0.2613	-2.7945	0.4108	4.7192	-18.3063	0.2497	-2.5411	1.4757	-2.8838	-0.9159	2.2236	-5.7199	-3.573	-1.6719	-10.0491	0.6014	-4.2254	-5.9375	-3.138	-2.3862	0.333	0.333	0.333	0.333	0.333	0.333	0.333	0.333	0.333	0.333	0.333	0.333	0.333	0.333	0.333	0.333	0.333	0.333	0.333	6.327	1.7139	3.7228	5	98	0.687631999871835	0	1
"99"	5	41	2	2	5.35	0	3	1	1	0.681	9.5013	2.8671	6.9045	3.6834	12.1463	-4.9429	1.2226	3.2201	2.8447	3.7661	5.4268	2.9906	-2.0912	5.1993	13.7627	9.3918	3.1969	5.2716	15.9798	5.2086	0.2202	0.3063	0.2091	0.482	0.3165	0.504	0.3797	0.4869	0.3974	0.2048	0.2554	0.4354	0.217	0.3154	0.282	0.3127	0.351	0.2306	0.43	6.3365	1.4552	2.1483	5	99	-0.384192972832625	1	0
"100"	5	44	2	-2	-5.35	1	8	-1	1	2.441	-3.3319	0.6989	0.1524	-13.4304	-12.3044	-3.3309	-8.0637	-11.3151	-5.654	-11.0767	5.3138	-2.4552	-1.1157	-4.7475	-2.6515	-3.8843	-12.3891	-4.5704	-5.75	-6.4601	0.333	0.333	0.333	0.333	0.333	0.333	0.333	0.333	0.333	0.333	0.333	0.333	0.333	0.333	0.333	0.333	0.333	0.333	0.333	6.327	1.4046	3.8587	5	100	0.892407791410823	0	1
"101"	5	42	2	4	10.7	0	2	1	1	0.748	9.8114	10.7323	14.6534	-1.3282	9.2077	15.1996	7.0625	10.1177	9.1909	8.2134	19.3648	17.1072	10.1898	7.6898	9.519	9.4905	7.7823	4.2448	18.2273	16.4795	0.4844	0.2911	0.2054	0.2629	0.4037	0.2091	0.2531	0.4644	0.3049	0.3649	0.2791	0.3611	0.408	0.2261	0.3427	0.4764	0.4338	0.3115	0.2466	6.3293	1.7244	2.4824	5	101	-0.29035230100766	1	0
"102"	5	26	2	1	2.675	0	16	-1	0	5.29	2.6029	0.4574	0.9044	4.5192	0.3035	1.6602	8.6617	-5.0214	8.3522	1.9978	3.9986	-5.5772	1.6716	2.7462	-9.2844	8.5456	5.1684	4.6512	4.8725	11.4914	0.2254	0.3685	0.4002	0.3055	0.3477	0.2174	0.38	0.3058	0.5206	0.4467	0.4205	0.2787	0.2504	0.2873	0.4751	0.205	0.3417	0.2391	0.3075	6.3231	1.5454	6.8409	5	102	1.66581824587021	0	1
"103"	5	11	2	0	0	0	14	-1	1	4.593	-2.7201	0.1187	-0.2923	-7.6387	1.7627	2.0549	-2.4189	8.495	1.0215	3.56	1.6401	-7.2903	-0.7888	-10.0205	-0.7046	5.9793	5.1668	-1.8826	-4.6114	7.8605	0.5057	0.2396	0.3117	0.3513	0.2074	0.4511	0.2285	0.2673	0.385	0.3555	0.2153	0.514	0.4743	0.201	0.3139	0.2455	0.2045	0.3689	0.4868	6.3273	1.4107	6.01	5	103	1.52453340534366	0	1
"104"	5	49	2	4	10.7	1	5	1	1	1.533	6.9175	8.3941	9.375	-1.3686	6.7819	15.418	7.4753	16.4388	4.398	5.1578	10.3341	9.1476	11.9933	18.9244	13.7777	14.8089	13.478	14.6739	10.4329	17.8389	0.333	0.333	0.333	0.333	0.333	0.333	0.333	0.333	0.333	0.333	0.333	0.333	0.333	0.333	0.333	0.333	0.333	0.333	0.333	6.327	1.6822	3.2171	5	104	0.427226599889677	1	0
"105"	5	19	2	1	2.675	1	10	1	1	3.191	1.4013	6.908	1.4785	5.3182	6.4673	-2.4578	5.9999	12.1563	7.5835	1.9375	-0.4504	-3.9178	0.8002	-0.6828	-3.4421	11.2878	-2.8739	0.2836	8.2652	-3.0416	0.333	0.333	0.333	0.333	0.333	0.333	0.333	0.333	0.333	0.333	0.333	0.333	0.333	0.333	0.333	0.333	0.333	0.333	0.333	6.327	1.4912	4.6911	5	105	1.16033434729611	1	0
"106"	5	14	2	4	10.7	0	4	1	1	0.99	9.2925	6.9314	18.4088	7.5303	8.0431	4.0063	4.5528	13.8464	15.6362	11.4999	10.147	4.2355	4.8079	12.5777	14.0484	6.0224	13.396	20.4399	11.6306	17.1821	0.2623	0.2907	0.4024	0.2867	0.3398	0.5296	0.4767	0.3225	0.2389	0.4053	0.3315	0.2859	0.4386	0.3146	0.2115	0.2828	0.2271	0.2877	0.388	6.3228	1.4237	2.4243	5	106	-0.0100503358535015	1	0
"107"	5	25	2	0	0	0	4	-1	0	1.317	-3.0507	-0.426	4.1175	1.2776	-8.1948	4.9023	6.2951	-3.8324	0.7487	3.5114	2.3639	-3.6392	2.0287	7.6628	-5.5854	-4.2938	0.4647	9.0107	-5.3003	-7.3259	0.3504	0.2652	0.4341	0.5211	0.316	0.2767	0.2346	0.3798	0.288	0.2196	0.2957	0.341	0.5254	0.3274	0.25	0.2873	0.436	0.2531	0.3336	6.3349	1.4472	2.7678	5	107	0.275356422761144	0	1
"108"	5	17	2	-1	-2.675	1	20	-1	1	6.973	-3.3008	-5.5308	-5.1211	-9.2292	-0.328	-9.6335	5.3977	-7.235	-1.1198	-7.9127	8.4786	-2.8258	3.5548	2.7842	-3.7246	1.353	-4.2808	-3.4975	-7.9148	-3.0303	0.333	0.333	0.333	0.333	0.333	0.333	0.333	0.333	0.333	0.333	0.333	0.333	0.333	0.333	0.333	0.333	0.333	0.333	0.333	6.327	1.7255	8.7075	5	108	1.94204554823887	0	1
"109"	5	1	2	-4	-10.7	1	3	-1	1	0.798	-14.1529	-1.2843	-10.4868	-19.7045	-14.8772	-2.3967	-5.3683	-10.2442	-10.2271	-8.2116	-14.8943	-10.1571	-20.0346	-6.7921	-15.3371	-7.5922	-10.3273	-11.2304	-11.1647	-8.5346	0.333	0.333	0.333	0.333	0.333	0.333	0.333	0.333	0.333	0.333	0.333	0.333	0.333	0.333	0.333	0.333	0.333	0.333	0.333	6.327	1.4429	2.2489	5	109	-0.225646681532328	0	1
"110"	5	55	2	2	5.35	0	5	1	1	1.544	2.9613	8.9656	4.4344	5.8627	9.614	2.3208	1.3512	1.6471	14.701	10.3703	5.2113	12.118	-2.5191	13.115	5.9495	2.9368	4.8498	2.6444	3.9513	-4.0154	0.3	0.3912	0.2318	0.3331	0.4913	0.3514	0.383	0.2832	0.3363	0.2659	0.211	0.532	0.3728	0.3245	0.2365	0.4427	0.3176	0.2183	0.2997	6.3222	1.6472	3.2119	5	110	0.434376451602584	1	0
"111"	5	46	2	0	0	1	7	-1	1	2.204	0.2291	-7.7777	-2.9903	1.4612	-0.0129	-10.1121	-0.2293	8.6786	0.2686	-3.1314	3.038	7.2444	-2.8964	2.6236	2.5624	1.7856	2.7801	6.993	-9.5514	0.028	0.333	0.333	0.333	0.333	0.333	0.333	0.333	0.333	0.333	0.333	0.333	0.333	0.333	0.333	0.333	0.333	0.333	0.333	0.333	6.327	1.4054	3.6218	5	111	0.790273891290668	0	1
"112"	5	57	2	-4	-10.7	1	3	-1	1	0.825	-13.8575	-12.1522	-12.0034	-13.6727	-12.4739	-7.123	-8.7918	-8.2814	-20.1231	-3.3894	-14.5953	-10.1181	-6.7524	-9.45	-0.717	-11.7041	-20.7124	-15.2269	-6.7493	-7.3927	0.333	0.333	0.333	0.333	0.333	0.333	0.333	0.333	0.333	0.333	0.333	0.333	0.333	0.333	0.333	0.333	0.333	0.333	0.333	6.327	1.5714	2.4095	5	112	-0.192371892647456	0	1
"113"	5	69	2	2	5.35	0	3	1	1	1.112	7.7076	6.0014	5.9767	3.726	3.1373	13.9367	4.8807	6.6337	4.6955	8.4057	-2.0505	0.8244	14.4831	15.1262	-1.8875	0.5248	10.4675	2.4734	1.1	2.7645	0.4647	0.31	0.4013	0.2177	0.3448	0.2021	0.5299	0.3097	0.4291	0.2267	0.2616	0.2227	0.4771	0.2379	0.2012	0.2484	0.4859	0.5109	0.2475	6.3292	1.5629	2.6791	5	113	0.106160195828391	1	0
"114"	5	23	2	-2	-5.35	0	6	-1	1	1.929	-4.4753	-4.0647	-9.6539	-11.1893	-13.13	-7.7266	-11.3393	-4.3434	-10.2316	-12.0219	1.9255	-2.6243	1.9816	1.7259	-6.1463	-2.1866	-1.7119	-8.3682	-5.3053	1.1542	0.3961	0.4981	0.2444	0.3403	0.2251	0.3552	0.3286	0.2834	0.2468	0.2786	0.3323	0.4689	0.287	0.3372	0.293	0.341	0.2333	0.4532	0.3856	6.328	1.4203	3.3627	5	114	0.657001733923592	0	1
"115"	5	16	2	-2	-5.35	1	12	1	0	3.779	-4.5681	-3.9325	-10.5434	-3.9325	-5.812	0.4212	-10.6343	-4.9695	1.0767	-10.9267	-7.9351	-4.4016	-9.7756	-1.8529	-4.9088	-0.9715	4.281	-9.0835	-15.9949	-0.7028	0.333	0.333	0.333	0.333	0.333	0.333	0.333	0.333	0.333	0.333	0.333	0.333	0.333	0.333	0.333	0.333	0.333	0.333	0.333	6.327	1.691	5.4799	5	115	1.32945942436735	1	0
"116"	5	68	2	1	2.675	0	3	1	1	0.761	3.2326	5.3206	-4.1213	5.7803	4.1173	7.2139	6.154	-7.939	0.9625	9.4324	3.4456	6.9596	4.2941	9.1256	2.8723	-0.6815	-1.4731	5.7908	-7.0824	-0.3194	0.2377	0.3438	0.4465	0.3442	0.2014	0.2847	0.3544	0.3266	0.25	0.2997	0.4868	0.2166	0.3912	0.3471	0.5053	0.3938	0.3123	0.2446	0.3371	6.3239	1.4599	2.2282	5	116	-0.273121921120451	1	0
"117"	5	48	2	2	5.35	1	6	1	1	1.982	2.1025	-3.2805	6.5425	10.1707	0.8461	8.9963	2.8003	-1.438	5.3863	13.7636	10.682	6.1936	15.3337	-0.5725	5.4482	0.7211	7.3732	3.9205	1.9594	10.2412	0.333	0.333	0.333	0.333	0.333	0.333	0.333	0.333	0.333	0.333	0.333	0.333	0.333	0.333	0.333	0.333	0.333	0.333	0.333	6.327	1.6323	3.6162	5	117	0.684106435907796	1	0
"118"	5	35	2	4	10.7	1	2	1	1	0.614	8.4068	5.9555	6.5076	7.2096	9.7665	14.0478	8.6433	12.9457	15.7898	14.8438	4.7143	11.7497	18.9197	-1.8591	12.5143	16.0401	12.5794	14.1672	13.3774	5.9937	0.333	0.333	0.333	0.333	0.333	0.333	0.333	0.333	0.333	0.333	0.333	0.333	0.333	0.333	0.333	0.333	0.333	0.333	0.333	6.327	1.4552	2.0817	5	118	-0.487760350834995	1	0
"119"	5	8	2	-4	-10.7	0	4	-1	1	1.325	-9.8486	-11.3145	-9.3392	-15.3605	-16.7063	-10.6148	-5.447	-19.735	-7.2392	-6.6527	-16.3782	-7.3194	0.6289	-16.0454	-13.6925	-15.4503	-9.1535	-6.4307	-10.1468	-6.0411	0.3455	0.2246	0.4054	0.4622	0.4881	0.32	0.2386	0.2036	0.4805	0.3998	0.3049	0.3955	0.2901	0.3905	0.2834	0.2538	0.3355	0.2828	0.2242	6.3291	1.5562	2.892	5	119	0.281412459438185	0	1
"120"	5	53	2	0	0	0	2	1	1	0.609	-1.74	5.4766	-2.3531	-4.015	5.5197	-4.0145	0.7333	0.4993	7.6464	-7.257	-6.3455	6.92	0.6838	3.4289	4.6119	-10.068	3.4823	-0.8486	-3.289	1.8087	0.2134	0.4965	0.4645	0.3088	0.2094	0.5255	0.3102	0.2004	0.2958	0.2401	0.3358	0.3784	0.2505	0.4817	0.2608	0.4081	0.2174	0.3109	0.4244	6.3324	1.6957	2.3098	5	120	-0.49593701127224	1	0
"121"	5	20	2	2	5.35	1	5	1	1	1.49	6.0511	-0.3808	7.274	11.1366	-4.2911	6.4986	4.1487	13.6152	3.9764	9.3598	10.2745	7.6618	0.1222	2.6433	11.3471	-3.6484	6.8594	2.0063	2.4725	10.0961	0.333	0.333	0.333	0.333	0.333	0.333	0.333	0.333	0.333	0.333	0.333	0.333	0.333	0.333	0.333	0.333	0.333	0.333	0.333	6.327	1.711	3.2076	5	121	0.398776119957368	1	0
"122"	5	30	2	-2	-5.35	1	3	-1	1	0.845	-8.879	-12.1479	-2.7	-7.0168	-10.8658	-2.5302	-1.7216	-6.3291	-1.3763	2.3422	-2.7307	-8.0188	-6.9681	-1.252	-7.8789	-2.1174	-16.9515	-7.8218	-5.0687	4.2052	0.333	0.333	0.333	0.333	0.333	0.333	0.333	0.333	0.333	0.333	0.333	0.333	0.333	0.333	0.333	0.333	0.333	0.333	0.333	6.327	1.6149	2.4791	5	122	-0.168418651624963	0	1
"123"	5	45	2	-1	-2.675	1	3	1	0	0.979	-0.9193	2.6368	-0.226	-6.0808	-13.1349	2.6407	0.7032	-4.2905	-9.1595	-4.6139	3.8707	-6.9583	0.8792	-8.0878	-6.7292	4.4995	3.0147	-6.8908	-0.5271	-2.2795	0.333	0.333	0.333	0.333	0.333	0.333	0.333	0.333	0.333	0.333	0.333	0.333	0.333	0.333	0.333	0.333	0.333	0.333	0.333	6.327	1.68	2.6801	5	123	-0.0212236364516267	1	0
"124"	5	29	2	-4	-10.7	1	3	-1	1	0.952	-10.5183	-8.2726	-15.998	-13.4638	-10.4336	-10.4852	-5.9038	-7.6122	-18.0772	-13.5286	-0.943	-17.7635	-11.3108	-9.3977	-14.2651	-10.0375	-18.9473	-5.3557	-1.4513	-9.553	0.333	0.333	0.333	0.333	0.333	0.333	0.333	0.333	0.333	0.333	0.333	0.333	0.333	0.333	0.333	0.333	0.333	0.333	0.333	6.327	1.6528	2.6189	5	124	-0.0491902441907718	0	1
"125"	5	10	2	-1	-2.675	0	6	1	0	1.882	-0.708	5.2907	-3.6229	0.8836	-5.3851	-9.8307	-7.0457	2.7767	6.4973	-8.9237	-6.5116	-4.8328	-6.3934	-10.2333	-2.6851	-4.4187	4.8502	0.9973	-0.7566	-4.982	0.2589	0.3309	0.3021	0.3972	0.4809	0.2278	0.2827	0.2535	0.4143	0.2421	0.4053	0.3219	0.493	0.3454	0.2676	0.3519	0.2748	0.3877	0.2957	6.3337	1.7125	3.6159	5	125	0.632335041163188	1	0
"126"	5	5	2	1	2.675	1	6	1	1	1.975	6.4815	0.6917	1.819	0.5538	14.628	-1.7326	-0.8956	7.4829	-0.4763	8.7837	1.5957	0.7053	-2.2585	10.5562	6.9243	-1.645	-0.138	-2.1754	-2.9437	7.2051	0.333	0.333	0.333	0.333	0.333	0.333	0.333	0.333	0.333	0.333	0.333	0.333	0.333	0.333	0.333	0.333	0.333	0.333	0.333	6.327	1.4944	3.4758	5	126	0.680568398353085	1	0
"127"	5	39	2	0	0	0	4	1	0	0.964	2.9279	1.3981	1.8243	-3.4358	-5.0109	1.4081	7.1479	0.5641	-1.3999	-1.4617	1.9576	-1.8975	-9.1123	-6.8356	-4.6353	-3.3106	7.1572	6.7951	-4.5096	8.7598	0.214	0.3229	0.222	0.3823	0.4142	0.2363	0.4737	0.4259	0.4736	0.2527	0.2243	0.3847	0.4118	0.3639	0.4026	0.2027	0.3369	0.3681	0.2106	6.3233	1.6525	2.631	5	127	-0.0366639843715915	1	0
"128"	5	21	2	4	10.7	1	2	1	1	0.465	6.8778	3.1006	5.2408	6.2096	12.0215	7.5091	10.1375	24.0054	15.7599	12.7139	8.1942	6.3602	14.5238	6.8875	15.3198	15.0553	14.1623	6.9083	9.8665	14.4477	0.333	0.333	0.333	0.333	0.333	0.333	0.333	0.333	0.333	0.333	0.333	0.333	0.333	0.333	0.333	0.333	0.333	0.333	0.333	6.327	1.5948	2.0659	5	128	-0.765717873394781	1	0
"129"	5	70	2	4	10.7	0	3	1	1	0.705	6.562	8.822	9.6355	17.6662	10.8255	6.8909	10.1514	16.812	8.2725	11.5187	12.2248	9.7073	12.6208	21.2444	15.0256	2.044	5.0481	3.6926	17.121	6.9778	0.2487	0.2976	0.3881	0.3591	0.2871	0.3308	0.4364	0.2783	0.3978	0.5057	0.2092	0.2616	0.2263	0.5165	0.2536	0.5098	0.2777	0.3494	0.2006	6.3345	1.5626	2.2724	5	129	-0.349557476169868	1	0
"130"	5	13	2	2	5.35	0	2	1	1	0.62	6.6121	2.7138	8.3982	0.47	7.3104	7.898	5.0957	4.2622	1.6	18.373	11.3362	5.6096	4.3254	2.8796	-1.2688	-4.5163	7.5218	0.8759	9.0484	8.4362	0.4674	0.4145	0.3402	0.374	0.3339	0.2866	0.2589	0.2259	0.5104	0.2863	0.2242	0.4786	0.3011	0.3519	0.3981	0.2392	0.2662	0.2196	0.3579	6.3349	1.6799	2.3039	5	130	-0.478035800943	1	0
"131"	5	65	2	-2	-5.35	0	6	-1	1	2.023	-2.4862	-2.1118	-0.2835	-7.2488	-2.4625	-11.0432	-10.2691	-7.0347	-9.5149	2.0424	-16.5733	-14.2248	-4.7269	-4.441	-3.7639	-3.6186	0.3817	-8.4695	0.9416	-4.0482	0.2189	0.3999	0.2856	0.3911	0.428	0.3683	0.267	0.2257	0.288	0.4278	0.2016	0.4495	0.4228	0.3182	0.2558	0.2269	0.4833	0.4394	0.2367	6.3345	1.6599	3.69	5	131	0.704581558185609	0	1
"132"	5	34	2	2	5.35	1	5	1	1	1.405	0.6395	-4.2756	12.0074	10.2792	7.3385	-3.591	7.3647	1.8829	12.6979	5.305	6.2718	9.5408	-1.7242	10.1958	5.1589	7.4897	11.183	3.2354	3.076	1.7783	0.333	0.333	0.333	0.333	0.333	0.333	0.333	0.333	0.333	0.333	0.333	0.333	0.333	0.333	0.333	0.333	0.333	0.333	0.333	6.327	1.5336	2.9394	5	132	0.340037302785709	1	0
"133"	5	33	2	1	2.675	1	6	1	1	1.762	3.0945	0.7778	4.9822	10.4993	0.3532	-0.3646	-2.3732	-1.9581	0.9488	14.3543	-2.5568	0.4773	13.6873	0.0982	2.1117	-0.6912	0.7947	0.4773	6.9782	0.5225	0.333	0.333	0.333	0.333	0.333	0.333	0.333	0.333	0.333	0.333	0.333	0.333	0.333	0.333	0.333	0.333	0.333	0.333	0.333	6.327	1.5324	3.2961	5	133	0.566449527513988	1	0
"134"	5	7	2	4	10.7	1	5	1	1	1.665	9.1792	9.6836	15.0693	8.2357	19.5716	21.048	1.9763	15.7865	10.1099	5.0138	7.1464	5.4862	9.7001	9.915	13.8681	10.5495	13.6704	3.8861	14.6771	8.0578	0.333	0.333	0.333	0.333	0.333	0.333	0.333	0.333	0.333	0.333	0.333	0.333	0.333	0.333	0.333	0.333	0.333	0.333	0.333	6.327	1.6345	3.2989	5	134	0.509825123432407	1	0
"135"	5	32	2	0	0	1	9	-1	1	2.789	-0.4275	6.3964	0.9098	1.5053	-8.8545	-4.6255	1.4808	4.9189	1.2242	4.1619	-3.1023	6.9896	-8.0227	-2.0815	-1.0427	8.9338	0.8888	2.7522	-5.2288	-5.7725	0.333	0.333	0.333	0.333	0.333	0.333	0.333	0.333	0.333	0.333	0.333	0.333	0.333	0.333	0.333	0.333	0.333	0.333	0.333	6.327	1.5005	4.2902	5	135	1.02568310864535	0	1
"136"	5	67	2	0	0	0	8	-1	1	2.698	-2.4223	-9.3847	-3.3216	4.1902	3.8493	1.5614	-6.5927	-3.0253	7.5861	7.2311	-3.0521	-1.7011	0.3494	4.0325	-5.2755	2.2538	-6.3112	-1.8651	2.3751	7.7749	0.3857	0.3203	0.4154	0.2736	0.3131	0.4065	0.3197	0.2788	0.4975	0.3022	0.353	0.2319	0.4042	0.3214	0.2218	0.2476	0.456	0.34	0.2387	6.3274	1.6549	4.3485	5	136	0.992510757785564	0	1
"137"	5	50	2	-4	-10.7	0	4	-1	1	1.505	-7.8372	-8.231	-14.8709	-10.0782	-3.6779	-17.1103	-15.0059	-8.987	-16.2993	-20.7914	-9.6593	-17.5503	-4.0757	-4.5314	-5.4705	-8.7507	-12.163	-10.1899	-5.746	-13.5999	0.5054	0.3876	0.348	0.4451	0.4017	0.488	0.3103	0.2819	0.3465	0.209	0.3199	0.2054	0.4309	0.3155	0.2033	0.2581	0.2088	0.277	0.3768	6.3192	1.5551	3.0729	5	137	0.408792898200839	0	1
"138"	5	40	2	1	2.675	0	5	1	1	1.741	-1.6615	-3.4547	7.1435	-6.5274	-1.2795	0.5437	5.6329	6.4974	3.6745	6.054	-1.4986	4.9925	-2.4767	4.7002	5.9398	14.4101	8.7658	1.8786	2.6306	-1.0938	0.4067	0.4548	0.3537	0.4046	0.3249	0.2663	0.4655	0.229	0.3151	0.3756	0.3111	0.4753	0.2031	0.3773	0.3147	0.2111	0.3468	0.2799	0.2163	6.3316	1.4611	3.225	5	138	0.554459660786052	1	0
"139"	5	27	2	2	5.35	0	9	1	1	3.227	6.4834	3.4414	9.8167	-1.9184	3.7271	6.7166	2.6823	11.754	6.6353	6.2324	4.7673	-0.4589	-5.5315	5.6349	2.9495	11.6988	10.9196	13.1361	-1.5348	9.0311	0.4134	0.2088	0.5054	0.3629	0.5059	0.295	0.4364	0.2844	0.3493	0.3953	0.3328	0.2637	0.4191	0.208	0.3	0.208	0.3302	0.2205	0.2969	6.336	1.5346	4.7777	5	139	1.17155291306982	1	0
"140"	5	12	2	1	2.675	0	16	1	1	4.951	1.066	-3.0468	2.6352	16.7424	-3.8367	0.5509	1.6893	1.8245	1.7546	0.1744	2.9545	1.0186	-1.502	6.6189	13.5822	2.3258	0.4769	3.7011	4.8685	-1.2678	0.2562	0.2852	0.4747	0.2006	0.4868	0.4147	0.2632	0.217	0.4037	0.2319	0.2739	0.3134	0.2051	0.2829	0.3463	0.4975	0.4719	0.2049	0.4944	6.3242	1.4469	6.4183	5	140	1.59958957637929	1	0
"141"	5	65	3	-2	-5.35	0	3	-1	1	1.032	-2.5972	-7.3009	-4.1573	-5.8519	0.5547	-6.2399	-10.4474	-1.9254	-9.634	-21.2191	-5.8335	-3.3323	-2.6495	-1.7708	-11.3707	0.227	-3.1463	-3.7609	-3.7107	-2.1021	0.418	0.313	0.4453	0.2417	0.3378	0.266	0.315	0.261	0.376	0.35	0.3059	0.4132	0.373	0.3035	0.2691	0.3225	0.2838	0.5104	0.2139	6.319	1.5746	2.6166	5	141	0.031498667059371	0	1
"142"	5	39	3	0	0	0	9	-1	0	3.079	-0.0916	2.9089	-1.5416	4.4907	-6.3699	3.1855	1.944	-6.6332	-0.0863	-5.4769	-2.4638	-4.6121	7.8155	12.1809	3.979	-3.8934	2.4589	-4.9435	-1.9846	0.7183	0.4524	0.2516	0.3105	0.4069	0.2272	0.3358	0.4703	0.4211	0.2494	0.2862	0.3862	0.2205	0.297	0.2487	0.4735	0.2231	0.4433	0.2369	0.3937	6.3343	1.5323	4.6131	5	142	1.12460486894236	0	1
"143"	5	52	3	-1	-2.675	0	9	-1	1	2.419	-2.3048	-5.0268	-0.214	-9.2753	-3.3616	-9.6292	4.0064	-11.4382	-10.1706	-4.252	3.5308	1.5452	-0.0838	4.1796	1.981	3.8873	-3.3224	-1.6726	-5.2493	-6.1221	0.2683	0.429	0.3285	0.2085	0.2589	0.2156	0.3686	0.2162	0.4897	0.4237	0.4877	0.2873	0.5285	0.239	0.2978	0.2637	0.3873	0.2806	0.3457	6.3246	1.4573	3.8861	5	143	0.88335423162789	0	1
"144"	5	24	3	-1	-2.675	0	16	-1	1	5.32	-4.173	-0.3041	-6.4617	-6.6488	7.0758	5.5574	-9.0486	-3.7698	2.0952	-3.139	-8.0916	0.2059	-5.7731	-9.1328	3.7024	-6.4568	-1.3316	3.4544	-8.751	-1.1259	0.2032	0.4554	0.239	0.335	0.4735	0.2516	0.2213	0.4882	0.4539	0.3894	0.2532	0.2788	0.2156	0.4974	0.2768	0.3102	0.5256	0.2474	0.2089	6.3244	1.4164	6.737	5	144	1.67147330335355	0	1
"145"	5	7	3	4	10.7	1	3	1	1	0.869	14.096	5.2709	17.5585	12.77	11.4939	1.9208	7.3639	12.8694	14.0414	9.7154	11.0442	6.8859	5.8352	9.3919	15.7558	21.0574	12.3474	1.6836	14.1283	7.4449	0.333	0.333	0.333	0.333	0.333	0.333	0.333	0.333	0.333	0.333	0.333	0.333	0.333	0.333	0.333	0.333	0.333	0.333	0.333	6.327	1.4376	2.3197	5	145	-0.140412153716745	1	0
"146"	5	47	3	1	2.675	1	7	-1	0	2.238	-0.2503	7.5357	5.2317	-3.6533	-4.8503	0.2711	12.2127	8.6219	4.3098	4.3004	-1.8021	8.5668	-1.9161	0.2425	-4.2058	-1.1362	8.0862	6.5444	1.9826	3.1861	0.333	0.333	0.333	0.333	0.333	0.333	0.333	0.333	0.333	0.333	0.333	0.333	0.333	0.333	0.333	0.333	0.333	0.333	0.333	6.327	1.5221	3.7725	5	146	0.805582609889734	0	1
"147"	5	44	3	-2	-5.35	1	4	-1	1	1.059	-6.2769	-8.8973	-9.5495	-2.6445	-5.3586	-6.5534	-4.3968	-0.063	-13.9877	-7.9233	-14.4026	-2.4463	-0.243	3.8352	-2.3438	-6.9046	-4.7932	-7.8489	-11.2235	3.5889	0.333	0.333	0.333	0.333	0.333	0.333	0.333	0.333	0.333	0.333	0.333	0.333	0.333	0.333	0.333	0.333	0.333	0.333	0.333	6.327	1.6914	2.76	5	147	0.0573250666192694	0	1
"148"	5	28	3	4	10.7	0	4	1	1	1.071	15.3616	12.1102	20.7845	7.9582	14.5575	12.4358	7.6685	16.462	13.2319	6.3962	6.4765	5.3147	4.8218	2.1821	12.3338	8.1031	6.3594	10.5012	13.1607	18.0261	0.3324	0.2211	0.3565	0.2875	0.4274	0.4818	0.2392	0.4035	0.2024	0.4907	0.4615	0.2932	0.2147	0.2784	0.3685	0.2923	0.3189	0.3524	0.3117	6.3341	1.6235	2.7055	5	148	0.0685927914656117	1	0
"149"	5	57	3	-4	-10.7	1	4	-1	1	1.016	-8.8152	-10.0906	-5.6979	-6.1608	-10.2039	-15.6484	-8.088	-15.5902	-18.2575	-8.7225	-0.5524	-16.8773	-7.444	-9.6478	-19.4391	-11.2646	-13.098	-13.6978	-3.3078	-10.8364	0.333	0.333	0.333	0.333	0.333	0.333	0.333	0.333	0.333	0.333	0.333	0.333	0.333	0.333	0.333	0.333	0.333	0.333	0.333	6.327	1.4028	2.4331	5	149	0.0158733491562902	0	1
"150"	5	63	3	4	10.7	1	7	1	1	2.142	11.6983	1.8346	5.4946	4.7243	13.5327	17.6984	8.2267	18.2092	17.9897	9.6897	7.0782	6.3888	16.3142	2.9677	15.8843	10.1321	12.7249	11.427	11.1207	10.622	0.333	0.333	0.333	0.333	0.333	0.333	0.333	0.333	0.333	0.333	0.333	0.333	0.333	0.333	0.333	0.333	0.333	0.333	0.333	6.327	1.7185	3.8757	5	150	0.761739972025557	1	0
"151"	5	51	3	-2	-5.35	0	6	-1	1	1.845	-5.2725	-0.7806	0.805	-1.0603	-3.6605	-10.3725	-1.3703	-8.3612	-11.9664	-9.2195	-3.0385	-5.4412	-10.331	-8.7012	-9.208	-2.3744	-9.837	-11.162	5.9669	-0.8131	0.257	0.3543	0.3091	0.2264	0.302	0.4436	0.2377	0.3142	0.2125	0.445	0.3253	0.2456	0.4698	0.3825	0.3215	0.3643	0.2921	0.4541	0.3663	6.3235	1.5657	3.4121	5	151	0.612479277492491	0	1
"152"	5	11	3	0	0	0	8	-1	1	2.392	1.3084	0.7259	3.6059	-5.8219	2.4665	4.7562	-8.1154	-6.8132	-0.4443	-1.913	0.6902	5.0948	2.0884	-8.8122	8.0683	5.2953	-4.4321	3.5882	3.8106	-4.3062	0.3778	0.3215	0.2088	0.3042	0.2584	0.459	0.4055	0.2373	0.3579	0.207	0.4094	0.21	0.4735	0.3575	0.2144	0.2978	0.3406	0.3863	0.4991	6.326	1.5256	3.9261	5	152	0.872129836088385	0	1
"153"	5	59	3	-1	-2.675	1	6	-1	1	1.728	-2.9771	-2.1686	7.4737	-14.4891	-3.902	3.3315	-0.8127	-8.7774	3.0536	-3.3563	1.4137	-8.4932	-0.7899	1.1759	-6.8387	-5.6635	-2.5885	-3.5079	-5.0501	-1.0246	0.333	0.333	0.333	0.333	0.333	0.333	0.333	0.333	0.333	0.333	0.333	0.333	0.333	0.333	0.333	0.333	0.333	0.333	0.333	6.327	1.698	3.4288	5	153	0.546964670381864	0	1
"154"	5	49	3	4	10.7	1	3	1	1	0.735	9.5593	12.2547	12.3587	-1.5259	7.2901	15.5094	1.1426	11.9095	15.6225	11.0343	16.0985	8.1835	11.0229	13.6674	14.9178	12.0945	7.6171	6.3131	9.4849	19.355	0.333	0.333	0.333	0.333	0.333	0.333	0.333	0.333	0.333	0.333	0.333	0.333	0.333	0.333	0.333	0.333	0.333	0.333	0.333	6.327	1.6836	2.4193	5	154	-0.3078847797693	1	0
"155"	5	25	3	0	0	0	8	1	1	2.392	-1.8093	0.6932	4.3766	5.8596	2.1964	6.8684	-2.4352	-3.2215	-5.2193	3.0421	-5.6393	-8.4508	3.0741	2.8878	3.9732	6.5571	-8.3243	1.0817	-6.7882	2.1479	0.3434	0.4631	0.2525	0.3202	0.2311	0.307	0.2532	0.3488	0.4187	0.3618	0.2481	0.2859	0.3555	0.3084	0.4137	0.3508	0.3205	0.4434	0.3059	6.332	1.5754	3.9759	5	155	0.872129836088385	1	0
"156"	5	68	3	1	2.675	0	4	1	1	1.243	3.2129	4.4597	5.0485	3.9576	-4.458	0.7659	1.573	9.2438	10.5042	5.0619	5.5852	1.3752	5.0278	-10.0697	4.9876	-2.179	8.497	-2.8025	-1.4545	4.9266	0.4889	0.3575	0.2395	0.4271	0.3295	0.2367	0.3081	0.3762	0.4444	0.2496	0.4404	0.2562	0.4232	0.2065	0.3742	0.2402	0.3268	0.3816	0.2227	6.3294	1.5207	2.7606	5	156	0.217527812528574	1	0
"157"	5	64	3	-4	-10.7	0	3	-1	1	0.842	-14.6095	-12.1869	-8.2024	-14.929	-11.5645	-6.7869	-8.5494	-12.9535	-17.6733	0.4949	-5.2042	-13.6329	-19.1051	-19.1753	-9.1537	-8.0818	-8.1633	-9.8426	-8.2301	-7.2753	0.3353	0.3869	0.2174	0.4271	0.3716	0.2668	0.2001	0.4669	0.2616	0.4554	0.389	0.2473	0.3785	0.5155	0.2373	0.3129	0.338	0.3061	0.2156	6.3291	1.529	2.3765	5	157	-0.17197526473981	0	1
"158"	5	34	3	2	5.35	1	5	1	1	1.443	7.7343	8.568	-2.8436	4.1223	15.7057	3.3848	11.9545	6.8903	6.0332	1.1994	6.2016	9.0022	3.7903	4.2786	8.5606	-0.1063	12.4626	3.7668	-3.8894	0.8705	0.333	0.333	0.333	0.333	0.333	0.333	0.333	0.333	0.333	0.333	0.333	0.333	0.333	0.333	0.333	0.333	0.333	0.333	0.333	6.327	1.6878	3.1435	5	158	0.366724279791734	1	0
"159"	5	22	3	-4	-10.7	0	3	-1	1	0.816	-14.667	-9.1597	-13.3275	-11.5091	-4.284	-4.9507	-11.5834	-17.5792	1.3739	-8.9836	-19.7762	-4.6756	-10.3328	-10.8882	-13.5752	-9.4957	-14.8038	-15.2902	-6.7582	-13.9377	0.2104	0.3188	0.4327	0.3903	0.3218	0.2927	0.5262	0.3016	0.2525	0.5097	0.4574	0.248	0.4277	0.2192	0.2519	0.3159	0.2202	0.3969	0.2333	6.3273	1.5208	2.3499	5	159	-0.20334092401803	0	1
"160"	5	26	3	1	2.675	0	8	1	1	2.752	0.2849	6.3228	-0.6574	-0.4404	-3.0584	14.9345	1.873	9.2603	7.8131	1.0848	-4.6533	-1.1361	6.459	7.8699	2.5641	1.9044	-3.5944	4.6296	-2.0211	4.585	0.4112	0.2375	0.3982	0.3134	0.5221	0.3414	0.2558	0.3143	0.2531	0.204	0.2309	0.2916	0.4989	0.2047	0.4977	0.3281	0.2839	0.4866	0.2581	6.3313	1.5754	4.3356	5	160	1.0123279200711	1	0
"161"	5	50	3	-4	-10.7	0	4	-1	1	1.209	-14.7847	-12.7111	-2.3635	-16.0418	-16.3414	-11.6924	-16.2259	-10.1827	-1.198	-5.2038	-10.1129	-12.777	-15.3986	-18.9823	-6.0574	-7.812	-6.3586	-8.7442	-6.9261	-12.5212	0.3755	0.2606	0.3126	0.4189	0.3704	0.2165	0.2484	0.2908	0.4061	0.3803	0.35	0.2265	0.3232	0.4208	0.3718	0.2686	0.2964	0.3416	0.4403	6.3194	1.4295	2.66	5	161	0.189793571632656	0	1
"162"	5	23	3	-2	-5.35	0	5	-1	1	1.74	-9.9771	0.7084	-2.6625	-12.6945	-1.6069	-6.4599	-2.4988	-5.922	-3.3359	0.7612	-3.5073	-5.0002	-14.5452	-6.1859	-1.7873	-13.4533	-13.9319	-4.9035	-2.3566	1.3858	0.274	0.2345	0.3407	0.441	0.487	0.3115	0.203	0.4269	0.2422	0.4081	0.5157	0.272	0.3054	0.2058	0.3854	0.4416	0.2343	0.3792	0.2241	6.3324	1.5411	3.2906	5	162	0.553885113226438	0	1
"163"	5	38	3	-1	-2.675	0	17	-1	1	5.534	-7.3123	-8.0869	-2.99	3.1492	0.1186	-9.6721	-8.7765	4.0866	-5.4184	1.0117	-4.6164	4.6767	5.9929	-1.5154	-8.2796	-8.4627	-1.8955	-2.3262	-4.6258	1.3288	0.37	0.2257	0.4222	0.3936	0.262	0.4475	0.2151	0.4355	0.2698	0.3273	0.2985	0.2433	0.4273	0.4714	0.3442	0.2809	0.4109	0.2094	0.264	6.3187	1.5986	7.1518	5	163	1.71091088136473	0	1
"164"	5	36	3	-4	-10.7	0	3	-1	1	0.812	-12.5887	-15.5362	-3.1992	-17.6443	-16.8323	-8.9272	-5.2807	-12.0018	-11.1147	-10.4417	-4.4749	-14.6157	-12.173	-10.9365	-8.325	1.3502	-17.6771	-9.3233	-10.3179	-14.9568	0.224	0.4638	0.2712	0.2343	0.4981	0.2066	0.2407	0.3674	0.5298	0.3869	0.3553	0.3092	0.2554	0.3986	0.2881	0.2096	0.2918	0.451	0.3427	6.3245	1.5763	2.3959	5	164	-0.208254938820459	0	1
"165"	5	19	3	1	2.675	1	12	-1	0	3.863	2.6441	5.2522	-6.7887	5.74	2.4503	11.3919	4.5644	4.9228	2.8005	-0.0947	-10.0708	1.3372	4.3228	5.8998	-4.1302	4.2576	2.9176	10.8379	3.4806	1.9836	0.333	0.333	0.333	0.333	0.333	0.333	0.333	0.333	0.333	0.333	0.333	0.333	0.333	0.333	0.333	0.333	0.333	0.333	0.333	6.327	1.6512	5.5136	5	165	1.35144408368414	0	1
"166"	5	56	3	4	10.7	0	5	1	1	1.63	6.8254	5.2842	12.5993	7.624	12.1177	17.4639	6.0403	3.6355	12.43	18.495	16.1654	3.5358	3.2539	12.4342	13.228	17.0646	11.062	13.0682	15.31	7.0208	0.4484	0.3339	0.3023	0.3354	0.49	0.4346	0.3362	0.2386	0.3217	0.2284	0.3134	0.2115	0.2499	0.3451	0.2346	0.3583	0.2405	0.5166	0.382	6.3213	1.7201	3.3641	5	166	0.488580014818671	1	0
"167"	5	54	3	1	2.675	0	15	1	1	5.054	-1.6293	7.7416	13.9932	-4.3342	4.2097	0.3293	5.6512	2.9782	-0.1146	2.8897	-3.1652	1.3809	10.9162	3.068	3.9686	0.5244	0.495	4.3732	-6.2804	7.4624	0.2254	0.3934	0.3465	0.4845	0.5133	0.2157	0.3525	0.4375	0.3947	0.2795	0.2214	0.2659	0.347	0.3729	0.2221	0.2983	0.3379	0.2103	0.4	6.319	1.6949	6.7546	5	167	1.620180008966	1	0
"168"	5	4	3	0	0	1	8	-1	0	2.533	-2.1766	3.984	-2.62	-2.4756	1.0917	-2.5056	-8.0642	-9.0408	3.9024	3.8161	0.4004	3.8439	2.8127	-6.6492	4.0428	6.7546	9.4913	-0.6244	1.028	-5.1759	0.333	0.333	0.333	0.333	0.333	0.333	0.333	0.333	0.333	0.333	0.333	0.333	0.333	0.333	0.333	0.333	0.333	0.333	0.333	6.327	1.5123	4.0507	5	168	0.929404371019538	0	1
"169"	5	35	3	4	10.7	1	2	1	1	0.645	15.2597	13.7066	15.3267	17.8819	13.8715	6.2344	5.1735	12.7829	4.0027	6.9878	16.5402	11.4633	14.6335	5.9824	9.1433	13.2622	12.7765	1.1906	14.6094	4.3438	0.333	0.333	0.333	0.333	0.333	0.333	0.333	0.333	0.333	0.333	0.333	0.333	0.333	0.333	0.333	0.333	0.333	0.333	0.333	6.327	1.5679	2.2119	5	169	-0.438504962186365	1	0
"170"	5	66	3	-1	-2.675	0	7	-1	1	1.961	-1.3639	-3.3825	0.4933	3.2604	-12.8162	-4.5035	-1.2475	-2.0002	-1.5099	-10.7376	-7.2294	1.0683	-4.1193	4.4352	-7.3752	0.8222	-9.1334	4.345	-3.1349	2.4625	0.2437	0.201	0.2363	0.4525	0.5247	0.2013	0.362	0.4609	0.3262	0.2164	0.4377	0.2853	0.2213	0.3164	0.208	0.3982	0.2972	0.4822	0.4567	6.3281	1.6168	3.5955	5	170	0.673454547214209	0	1
"171"	5	41	3	2	5.35	0	4	1	1	1.216	7.7644	2.6854	10.4382	1.9939	-1.1861	9.6885	6.4018	7.1056	4.8746	4.18	1.9425	3.1266	6.8412	-3.459	10.4329	4.6288	3.4821	5.513	-0.0705	19.0737	0.3619	0.2927	0.2166	0.4246	0.3886	0.4553	0.2339	0.4289	0.2035	0.3794	0.4782	0.2033	0.2668	0.33	0.2105	0.4562	0.2933	0.22	0.4835	6.3272	1.6884	2.9169	5	171	0.195566783543975	1	0
"172"	5	32	3	0	0	1	15	1	1	4.903	2.6786	1.759	-4.5533	0.5313	3.551	1.9787	3.8147	-5.1769	3.3223	-1.9699	5.7429	-2.6443	4.707	3.0661	-14.9613	-4.4691	-2.8868	2.9043	4.5948	-2.2519	0.333	0.333	0.333	0.333	0.333	0.333	0.333	0.333	0.333	0.333	0.333	0.333	0.333	0.333	0.333	0.333	0.333	0.333	0.333	6.327	1.5649	6.4868	5	172	1.5898472626691	1	0
"173"	5	6	3	2	5.35	1	3	1	1	0.872	6.8927	10.6846	3.3977	14.1458	1.8393	6.4149	8.3508	-2.5184	11.9337	7.0675	5.5198	3.2702	8.653	-1.7753	5.7485	-2.2405	1.8856	11.7897	7.3337	-0.9906	0.333	0.333	0.333	0.333	0.333	0.333	0.333	0.333	0.333	0.333	0.333	0.333	0.333	0.333	0.333	0.333	0.333	0.333	0.333	6.327	1.6327	2.5224	5	173	-0.136965855073157	1	0
"174"	5	70	3	4	10.7	0	5	1	1	1.635	6.2606	10.7474	6.6785	14.0365	12.9287	5.169	6.7452	7.741	10.241	5.541	5.0825	3.8943	13.2929	22.7103	13.7622	7.7235	15.7931	15.003	15.7618	15.8015	0.2112	0.2871	0.4563	0.3562	0.52	0.2056	0.3858	0.2186	0.4896	0.3855	0.2335	0.282	0.249	0.2235	0.3834	0.4785	0.3897	0.2256	0.3504	6.3316	1.6368	3.286	5	174	0.491642804349217	1	0
"175"	5	20	3	2	5.35	1	4	1	1	1.273	2.7671	7.8675	5.9622	7.0492	-4.302	-0.7078	4.7801	3.3495	6.4048	13.1061	11.195	-1.9737	5.3997	12.3783	12.376	3.433	5.0346	9.9629	1.8862	0.5217	0.333	0.333	0.333	0.333	0.333	0.333	0.333	0.333	0.333	0.333	0.333	0.333	0.333	0.333	0.333	0.333	0.333	0.333	0.333	6.327	1.6234	2.9069	5	175	0.241376319575269	1	0
"176"	5	42	3	4	10.7	0	2	1	1	0.619	12.0181	16.2363	11.5215	4.8803	5.4434	4.3714	14.8656	13.8987	6.5922	13.3761	12.8078	2.5752	8.2029	12.2054	16.9898	7.426	21.6559	8.3699	15.3722	6.6936	0.2777	0.413	0.2342	0.3421	0.4009	0.4766	0.3146	0.5014	0.2049	0.2543	0.3953	0.3021	0.4142	0.2007	0.3446	0.3876	0.2783	0.3782	0.2163	6.3368	1.5158	2.1368	5	176	-0.479650006297541	1	0
"177"	5	18	3	0	0	1	16	-1	1	5.176	3.9019	-3.6611	4.5538	-0.6633	3.3623	1.5559	-1.1833	12.8496	-1.7677	-0.8946	-7.9321	0.8993	-4.4219	1.3656	-3.4654	-10.8271	4.683	-0.1609	1.5907	2.1889	0.333	0.333	0.333	0.333	0.333	0.333	0.333	0.333	0.333	0.333	0.333	0.333	0.333	0.333	0.333	0.333	0.333	0.333	0.333	6.327	1.4101	6.5932	5	177	1.6440325571986	0	1
"178"	5	53	3	0	0	0	20	-1	0	7.395	0.3197	2.5993	-1.7748	-6.0143	7.6148	-3.3338	1.6692	0.2043	5.8721	-3.2445	-5.3966	-0.0504	-5.1707	7.2937	3.6866	-4.5354	-9.1736	5.9109	-3.0321	6.0199	0.2198	0.3868	0.2172	0.435	0.3037	0.4506	0.5101	0.3098	0.2749	0.3013	0.3745	0.2616	0.2168	0.25	0.4461	0.3596	0.2269	0.4447	0.3285	6.3179	1.7269	9.1294	5	178	2.00080409616276	0	1
"179"	5	9	3	-2	-5.35	0	4	-1	1	1.26	-7.5352	-7.001	-4.4778	-1.7928	-7.1004	2.187	-6.9018	-6.7279	-7.9427	-3.6732	-12.9506	-1.7197	-12.813	-3.7732	-15.1218	-0.4754	-10.0016	-3.4716	2.6318	2.2005	0.2185	0.3444	0.3985	0.4939	0.2744	0.5119	0.4171	0.2037	0.2593	0.5136	0.2996	0.3407	0.2525	0.2189	0.3631	0.2224	0.446	0.2074	0.3448	6.3307	1.68	2.944	5	179	0.231111720963387	0	1
"180"	5	12	3	1	2.675	0	10	-1	0	2.998	2.508	8.4576	4.2922	4.3469	3.5928	-9.2816	6.8669	1.2011	9.7877	2.3599	0.4413	-3.6663	4.5269	-5.3924	3.7147	4.5467	2.7474	11.8831	2.7725	-1.2347	0.3246	0.3956	0.4999	0.4193	0.2524	0.3409	0.2008	0.2938	0.2317	0.2874	0.3151	0.2054	0.3951	0.4731	0.3325	0.2185	0.2735	0.3853	0.4814	6.3264	1.7022	4.6988	5	180	1.09794539968041	0	1
"181"	5	67	3	0	0	0	20	-1	0	7.287	0.3255	-2.0199	0.2458	2.0732	3.5443	2.6542	-2.343	-8.2704	6.2824	-8.631	-2.1943	10.5282	-8.2249	6.3985	-1.2649	-2.0367	-2.2181	0.0627	-0.0153	5.1742	0.5177	0.3499	0.2746	0.3455	0.237	0.3922	0.2772	0.4665	0.3921	0.2012	0.3496	0.3972	0.4241	0.3866	0.2811	0.2047	0.2892	0.3407	0.2088	6.3359	1.496	8.7872	5	181	1.98609193868815	0	1
"182"	5	46	3	0	0	1	5	-1	0	1.449	0.1911	-7.3596	-6.3399	2.2068	1.035	-5.3421	0.0469	-8.2582	-3.5244	3.4089	3.2002	0.0096	7.2331	-2.3149	8.9625	-3.4221	6.8385	-1.5617	5.5476	-0.9551	0.333	0.333	0.333	0.333	0.333	0.333	0.333	0.333	0.333	0.333	0.333	0.333	0.333	0.333	0.333	0.333	0.333	0.333	0.333	6.327	1.4132	2.8826	5	182	0.370873663338545	0	1
"183"	5	5	3	1	2.675	1	9	1	1	2.681	1.4559	0.5358	0.2863	0.4093	8.2094	12.5401	-0.0437	5.9584	-1.3298	6.8554	-1.1502	3.9644	-2.1474	2.6713	2.6958	-7.1963	10.4641	9.1868	1.1944	-2.2426	0.333	0.333	0.333	0.333	0.333	0.333	0.333	0.333	0.333	0.333	0.333	0.333	0.333	0.333	0.333	0.333	0.333	0.333	0.333	6.327	1.5834	4.2818	5	183	0.986189859253822	1	0
"184"	5	40	3	1	2.675	0	9	1	1	2.967	-0.9477	-5.1428	4.9201	2.9571	-9.0836	-0.6814	6.8384	9.2139	5.4931	-2.0542	-0.3884	-2.7558	1.5209	6.4066	4.3088	4.7503	9.6076	7.5319	6.7145	5.7417	0.2449	0.5181	0.34	0.224	0.268	0.5324	0.2084	0.3654	0.2808	0.4385	0.4735	0.2204	0.2809	0.2173	0.2905	0.3408	0.4393	0.2568	0.3951	6.335	1.6819	4.6681	5	184	1.08755134130868	1	0
"185"	5	62	3	2	5.35	1	4	1	1	1.222	3.042	3.7812	15.647	7.6318	7.0004	-0.0442	5.8098	4.065	4.5087	3.4248	14.3359	-2.2892	5.0601	-4.5382	11.9843	1.3699	7.0201	9.1855	1.928	6.2318	0.333	0.333	0.333	0.333	0.333	0.333	0.333	0.333	0.333	0.333	0.333	0.333	0.333	0.333	0.333	0.333	0.333	0.333	0.333	6.327	1.5299	2.7563	5	185	0.200488860749404	1	0
"186"	5	31	3	-1	-2.675	1	17	-1	1	5.626	-1.1342	-3.6108	1.7859	4.1445	-3.5394	-5.7233	-11.1397	-0.209	-6.0462	-3.2243	0.5773	-5.8281	1.7947	-2.3972	-10.5416	-2.2434	-7.9093	-6.4264	10.2233	-3.9155	0.333	0.333	0.333	0.333	0.333	0.333	0.333	0.333	0.333	0.333	0.333	0.333	0.333	0.333	0.333	0.333	0.333	0.333	0.333	6.327	1.5172	7.1605	5	186	1.72739871006767	0	1
"187"	5	33	3	1	2.675	1	11	1	1	3.473	5.6577	1.5876	1.74	1.5895	4.6284	0.1435	1.7247	-2.8118	7.886	-6.4115	0.5929	-7.1134	7.9849	1.344	5.5622	11.9585	8.4065	6.7141	-1.8021	2.718	0.333	0.333	0.333	0.333	0.333	0.333	0.333	0.333	0.333	0.333	0.333	0.333	0.333	0.333	0.333	0.333	0.333	0.333	0.333	6.327	1.4024	4.8903	5	187	1.24501877376194	1	0
"188"	5	14	3	4	10.7	0	3	1	1	0.834	8.511	15.6572	16.2533	15.6663	6.268	9.787	10.5752	18.7084	14.2627	18.1742	13.286	5.8649	11.2573	4.5021	8.8917	0.7529	8.3171	5.3044	9.4489	14.393	0.4425	0.2767	0.4112	0.3035	0.3566	0.289	0.2135	0.25	0.4127	0.4398	0.3181	0.2314	0.3211	0.4236	0.3565	0.2843	0.4567	0.2889	0.2565	6.3326	1.4509	2.2846	5	188	-0.18152187662339	1	0
"189"	5	37	3	-2	-5.35	0	5	-1	1	1.395	-6.4912	-7.6636	-2.8578	-4.3237	-1.1562	-10.4158	4.5735	-3.9826	-15.3186	4.2698	-8.472	-7.8523	0.2176	-1.3585	-10.0087	-7.7613	-8.4616	-5.8626	-8.1917	-5.6717	0.3693	0.2122	0.2856	0.3756	0.3282	0.2492	0.3263	0.2869	0.2208	0.3971	0.2303	0.4617	0.4148	0.2632	0.3378	0.4192	0.4869	0.3155	0.3463	6.3271	1.5775	2.9786	5	189	0.332894415273329	0	1
"190"	5	10	3	-1	-2.675	0	12	-1	1	3.502	-3.529	0.9935	-3.3021	4.344	-8.1219	-8.6894	-3.9119	-2.4157	-4.7288	-4.9369	-6.6646	8.6063	-2.1345	-1.8761	2.1653	6.4541	-7.1719	-2.0533	-7.9378	-8.0929	0.3488	0.3836	0.2019	0.3093	0.2447	0.3797	0.299	0.4419	0.2132	0.4153	0.2628	0.3857	0.3501	0.2234	0.5108	0.3497	0.2791	0.4396	0.2813	6.3197	1.4363	4.9357	5	190	1.25333423386366	0	1
"191"	5	30	3	-2	-5.35	1	6	-1	1	1.751	-7.1767	-0.7065	-5.67	-12.7836	-8.4365	5.2739	-7.5348	-1.5637	-5.0219	0.6402	-7.5265	-0.6175	-6.5436	-6.4284	-4.6584	-10.0602	3.4133	-10.3213	-12.9658	-7.5646	0.333	0.333	0.333	0.333	0.333	0.333	0.333	0.333	0.333	0.333	0.333	0.333	0.333	0.333	0.333	0.333	0.333	0.333	0.333	6.327	1.439	3.1853	5	191	0.560187053303715	0	1
"192"	5	8	3	-4	-10.7	0	3	-1	1	0.89	-10.1132	-12.3744	-10.921	-9.466	-10.5712	-7.803	-18.6183	-23.0564	-13.5804	-13.86	-4.5088	-6.3993	-9.5004	-8.9128	1.6396	-12.8467	-8.4266	-11.4625	-14.1562	-9.116	0.2121	0.4507	0.2881	0.2104	0.4108	0.3018	0.2664	0.3106	0.2003	0.2376	0.499	0.3339	0.2247	0.3537	0.4575	0.4235	0.3682	0.2427	0.5319	6.3241	1.4673	2.3737	5	192	-0.116533816255952	0	1
"193"	5	58	3	-2	-5.35	1	6	-1	1	1.763	-9.7254	-2.6368	3.2748	-6.9616	-13.7848	6.2115	-6.0582	-6.443	-9.321	-10.4296	-4.5815	-8.4959	-3.508	2.1246	-8.0031	-2.1448	-7.732	-1.4496	-10.026	-7.5009	0.333	0.333	0.333	0.333	0.333	0.333	0.333	0.333	0.333	0.333	0.333	0.333	0.333	0.333	0.333	0.333	0.333	0.333	0.333	6.327	1.475	3.2468	5	193	0.567016903415733	0	1
"194"	5	1	3	-4	-10.7	1	2	-1	1	0.421	-12.4733	-2.7497	-8.6636	-18.031	-21.1049	-5.575	-5.8194	-8.1738	-13.3351	-7.0274	-16.5154	-7.4012	-6.6677	-9.9732	-15.0311	-16.4943	-5.6876	-8.661	-13.1434	-11.0022	0.333	0.333	0.333	0.333	0.333	0.333	0.333	0.333	0.333	0.333	0.333	0.333	0.333	0.333	0.333	0.333	0.333	0.333	0.333	6.327	1.6855	2.1213	5	194	-0.865122445299756	0	1
"195"	5	45	3	-1	-2.675	1	5	-1	1	1.54	-3.9568	-1.8743	-1.3488	-11.8586	-0.1364	-1.4134	0.6202	-13.4647	-5.0996	5.3878	-1.4931	3.9403	0.3597	-4.7255	-2.6836	-7.7698	0.1203	-2.7764	4.7367	-9.2151	0.333	0.333	0.333	0.333	0.333	0.333	0.333	0.333	0.333	0.333	0.333	0.333	0.333	0.333	0.333	0.333	0.333	0.333	0.333	6.327	1.4361	2.991	5	195	0.431782416425538	0	1
"196"	5	13	3	2	5.35	0	4	1	1	1.039	6.9639	7.5607	4.5738	9.2555	12.8897	3.7388	-1.4339	-3.2221	5.6853	2.6236	11.69	7.3278	6.383	-5.1978	9.4256	6.4772	0.0112	11.4508	2.4209	7.5091	0.2758	0.3496	0.201	0.2734	0.2181	0.3209	0.3787	0.4447	0.2608	0.4584	0.2791	0.216	0.3019	0.4492	0.3988	0.3212	0.4237	0.3531	0.3977	6.322	1.6352	2.69	5	196	0.0382587121170903	1	0
"197"	5	55	3	2	5.35	0	2	1	1	0.747	8.3463	8.9641	1.8058	8.2499	1.4005	-3.4151	9.1473	8.73	10.581	3.9231	13.2116	7.9014	9.4859	-1.3075	6.3464	8.9064	-0.9305	4.4083	4.2841	-3.8434	0.4711	0.3644	0.2638	0.2004	0.3245	0.3572	0.2067	0.4517	0.2613	0.3102	0.2555	0.2811	0.4615	0.4362	0.2952	0.2651	0.4548	0.2642	0.3931	6.3181	1.5751	2.331	5	197	-0.29169009384932	1	0
"198"	5	69	3	2	5.35	0	2	1	1	0.693	1.9749	10.7066	12.3547	8.0648	15.0193	0.464	5.0766	2.0392	8.9789	1.1655	0.6857	6.8571	2.7586	11.3334	6.6635	-1.3796	8.7443	5.7005	2.6529	-3.7364	0.4365	0.3789	0.4987	0.2998	0.3647	0.4306	0.2935	0.2208	0.5202	0.3152	0.2274	0.3393	0.2177	0.3276	0.2282	0.2902	0.3933	0.3253	0.2285	6.3364	1.5088	2.2099	5	198	-0.366725279792234	1	0
"199"	5	2	3	-2	-5.35	1	3	-1	1	0.679	-9.9016	-10.5175	-4.6145	-9.5601	-1.4105	-2.1862	-4.3961	-19.4432	-3.8157	0.3107	-1.5329	0.4147	-9.1404	-4.4014	-3.4891	-1.8752	-0.49	-5.32	-4.2274	-12.2577	0.333	0.333	0.333	0.333	0.333	0.333	0.333	0.333	0.333	0.333	0.333	0.333	0.333	0.333	0.333	0.333	0.333	0.333	0.333	6.327	1.4492	2.1467	5	199	-0.387134151423441	0	1
"200"	5	48	3	2	5.35	1	3	1	1	0.826	4.8648	11.1512	5.2605	-3.9475	1.8822	5.9117	14.0304	12.5658	4.1268	1.3164	2.694	4.1851	4.3243	3.5875	9.673	3.6683	2.7921	-3.6442	12.5456	10.9824	0.333	0.333	0.333	0.333	0.333	0.333	0.333	0.333	0.333	0.333	0.333	0.333	0.333	0.333	0.333	0.333	0.333	0.333	0.333	6.327	1.5509	2.3929	5	200	-0.191160505461159	1	0
"201"	5	60	3	0	0	1	5	1	1	1.491	4.8949	0.5279	-6.6569	-2.0434	2.5411	-0.8397	2.82	0.2777	-0.433	3.5374	0.0616	1.2935	-6.0204	12.442	-4.3937	-9.1137	0.4304	1.4697	5.0113	-6.8001	0.333	0.333	0.333	0.333	0.333	0.333	0.333	0.333	0.333	0.333	0.333	0.333	0.333	0.333	0.333	0.333	0.333	0.333	0.333	6.327	1.5654	3.0581	5	201	0.399447035782601	1	0
"202"	5	61	3	1	2.675	1	3	1	1	0.705	4.9656	7.8011	-8.2874	-1.9236	6.3289	-0.8433	6.2645	-0.4765	5.2639	4.2828	2.143	8.9031	-3.8811	3.731	6.011	6.2722	-2.5101	2.5615	11.3278	-3.4923	0.333	0.333	0.333	0.333	0.333	0.333	0.333	0.333	0.333	0.333	0.333	0.333	0.333	0.333	0.333	0.333	0.333	0.333	0.333	6.327	1.4773	2.1889	5	202	-0.349557476169868	1	0
"203"	5	27	3	2	5.35	0	6	1	1	2.289	0.6571	4.5298	4.9837	5.466	0.5568	-0.2907	10.5314	6.655	-0.7834	6.4129	3.3258	4.9778	18.9556	-2.2509	8.3172	7.3442	9.6225	1.9543	4.2092	10.0846	0.4006	0.5058	0.3475	0.5066	0.378	0.4355	0.4722	0.2115	0.3435	0.2637	0.3217	0.2029	0.2747	0.3134	0.2709	0.3163	0.2469	0.3136	0.2032	6.3284	1.5702	3.8733	5	203	0.82811504097043	1	0
"204"	5	21	3	4	10.7	1	4	1	1	1.122	7.3892	11.5143	10.854	11.0629	12.4853	1.5696	10.4655	19.5512	20.3205	16.4442	3.2919	6.8352	9.3624	7.3582	8.0994	10.9619	11.1463	14.6931	16.6446	5.7061	0.333	0.333	0.333	0.333	0.333	0.333	0.333	0.333	0.333	0.333	0.333	0.333	0.333	0.333	0.333	0.333	0.333	0.333	0.333	6.327	1.7099	2.84	5	204	0.115112807100505	1	0
"205"	5	16	3	-2	-5.35	1	2	-1	1	0.623	-9.4049	-5.9173	-9.6895	-2.1144	2.1756	-1.9275	-2.3244	-13.9207	-10.3678	-6.0947	-13.548	3.5756	-4.3607	-9.2716	1.2513	-4.151	-0.2967	-4.8573	-9.1535	-6.3908	0.333	0.333	0.333	0.333	0.333	0.333	0.333	0.333	0.333	0.333	0.333	0.333	0.333	0.333	0.333	0.333	0.333	0.333	0.333	6.327	1.5031	2.124	5	205	-0.473208760194684	0	1
"206"	5	29	3	-4	-10.7	1	2	-1	1	0.612	-10.6347	-19.0396	-18.1723	-11.1386	-6.7568	-9.3593	-14.8609	-10.0387	-5.5196	-0.8532	-10.2897	-9.2504	-19.7554	-10.5629	-13.7062	-10.3493	-6.5346	-4.5112	-6.8623	-16.881	0.333	0.333	0.333	0.333	0.333	0.333	0.333	0.333	0.333	0.333	0.333	0.333	0.333	0.333	0.333	0.333	0.333	0.333	0.333	6.327	1.6261	2.2457	5	206	-0.491022996469811	0	1
"207"	5	43	3	-4	-10.7	1	4	-1	1	1.027	-13.2193	-11.5306	-12.9548	-9.8099	-6.5182	-1.6408	-18.6142	-15.7984	-4.1739	-5.8242	-15.2677	-9.0885	-7.1091	-10.1869	-9.7618	-19.8186	-3.9639	-17.461	-11.9243	-8.8505	0.333	0.333	0.333	0.333	0.333	0.333	0.333	0.333	0.333	0.333	0.333	0.333	0.333	0.333	0.333	0.333	0.333	0.333	0.333	6.327	1.6593	2.6945	5	207	0.0266419309464211	0	1
"208"	5	3	3	-1	-2.675	1	13	-1	1	4.151	0.6202	-4.3588	-2.3355	10.7042	-0.9376	-4.9772	-5.5925	-2.5081	-2.5052	-7.3642	-1.4176	-12.4606	0.5069	-2.2409	-8.613	2.2475	0.238	-3.5298	-9.8557	1.7587	0.333	0.333	0.333	0.333	0.333	0.333	0.333	0.333	0.333	0.333	0.333	0.333	0.333	0.333	0.333	0.333	0.333	0.333	0.333	6.327	1.6103	5.7681	5	208	1.4233492690709	0	1
"209"	5	15	3	-4	-10.7	1	8	-1	1	2.432	-8.2758	-12.7377	-1.319	-11.7218	-14.9391	-3.1408	-16.9656	-12.4865	-10.0179	-8.9484	-17.4668	-11.6005	0.131	-5.4342	-14.6196	-15.0163	-7.4158	-13.8929	-15.5071	-12.5693	0.333	0.333	0.333	0.333	0.333	0.333	0.333	0.333	0.333	0.333	0.333	0.333	0.333	0.333	0.333	0.333	0.333	0.333	0.333	6.327	1.4001	3.8489	5	209	0.888713964103921	0	1
"210"	5	17	3	-1	-2.675	1	7	-1	1	2.054	-4.4941	6.2764	-1.2529	-10.032	-9.5299	-10.2877	-2.9325	-2.2925	2.6546	0.9046	-10.621	-8.3614	6.1361	-2.1504	-3.0787	1.6586	-1.1563	-2.2475	-1.4618	-0.7329	0.333	0.333	0.333	0.333	0.333	0.333	0.333	0.333	0.333	0.333	0.333	0.333	0.333	0.333	0.333	0.333	0.333	0.333	0.333	6.327	1.5638	3.6378	5	210	0.719789111506366	0	1
"211"	5	63	4	4	10.7	1	3	1	1	0.958	8.6086	8.12	6.0647	14.6383	11.893	7.708	16.3647	19.1629	10.2315	9.6398	10.5796	3.8146	15.1846	1.859	15.6803	8.3702	9.6969	11.93	19.3843	3.2236	0.333	0.333	0.333	0.333	0.333	0.333	0.333	0.333	0.333	0.333	0.333	0.333	0.333	0.333	0.333	0.333	0.333	0.333	0.333	6.327	1.4927	2.4589	5	211	-0.0429075010112765	1	0
"212"	5	45	4	-1	-2.675	1	5	-1	1	1.531	-2.0715	0.5849	-5.0794	-9.4867	4.5037	-4.8638	-2.4283	1.4327	4.617	-11.5536	-9.183	-2.7726	3.1344	-2.294	-4.5696	-1.5951	-0.3677	-12.9968	0.4223	2.0956	0.333	0.333	0.333	0.333	0.333	0.333	0.333	0.333	0.333	0.333	0.333	0.333	0.333	0.333	0.333	0.333	0.333	0.333	0.333	6.327	1.6624	3.1983	5	212	0.425921116675547	0	1
"213"	5	34	4	2	5.35	1	7	1	1	2.147	2.6932	4.2416	14.0602	4.3748	-5.1636	4.3997	3.7884	11.6471	6.3946	9.3973	0.5086	9.6482	0.9808	5.5129	5.1568	8.2489	2.0047	-1.3204	14.7367	7.5523	0.333	0.333	0.333	0.333	0.333	0.333	0.333	0.333	0.333	0.333	0.333	0.333	0.333	0.333	0.333	0.333	0.333	0.333	0.333	6.327	1.5681	3.7145	5	213	0.764071518896644	1	0
"214"	5	27	4	2	5.35	0	3	1	1	0.817	7.4325	4.9242	0.2192	-5.8095	9.2268	-4.2986	5.1414	2.1026	5.7988	10.2159	8.6341	10.6636	8.5224	3.8984	9.2193	6.257	9.2068	13.774	1.7723	0.0071	0.518	0.2219	0.2807	0.4405	0.3083	0.3985	0.2308	0.3839	0.3048	0.3597	0.2744	0.2092	0.4376	0.28	0.3355	0.4398	0.2353	0.4153	0.2453	6.3195	1.6016	2.4182	5	214	-0.202116184122134	1	0
"215"	5	33	4	1	2.675	1	12	1	1	3.664	6.7345	5.6754	-4.2665	0.7778	-2.5629	0.3612	-3.0721	2.4911	-1.7816	-3.9835	10.1447	4.013	-0.912	8.8523	12.8449	6.7162	9.0232	2.2507	2.0057	-1.3556	0.333	0.333	0.333	0.333	0.333	0.333	0.333	0.333	0.333	0.333	0.333	0.333	0.333	0.333	0.333	0.333	0.333	0.333	0.333	6.327	1.4428	5.1151	5	215	1.29855544681188	1	0
"216"	5	42	4	4	10.7	0	3	1	1	0.587	10.5316	15.5471	1.6094	13.7623	13.2304	12.7737	7.5024	11.4548	14.362	9.882	11.4855	17.845	11.564	6.7262	16.9735	10.0426	15.8825	1.3845	1.5132	11.3051	0.2064	0.3381	0.3952	0.271	0.3194	0.5222	0.342	0.3741	0.225	0.5066	0.2887	0.2031	0.2993	0.3591	0.4291	0.3013	0.261	0.3144	0.377	6.333	1.5682	2.1714	5	216	-0.532730459154041	1	0
"217"	5	19	4	1	2.675	1	8	1	1	2.407	5.4728	0.9639	5.8518	4.1161	-3.2825	10.7079	2.1601	-0.8613	0.8307	7.4639	-0.1339	-6.99	5.9664	6.5623	9.6836	7.315	-3.5964	-3.5247	-3.0604	7.0701	0.333	0.333	0.333	0.333	0.333	0.333	0.333	0.333	0.333	0.333	0.333	0.333	0.333	0.333	0.333	0.333	0.333	0.333	0.333	6.327	1.5591	3.9742	5	217	0.878381158800935	1	0
"218"	5	47	4	1	2.675	1	13	1	1	4.067	4.5105	3.5235	1.2653	4.7745	6.1462	-10.992	3.7241	7.2751	5.1845	2.4327	4.4271	7.7548	8.4227	6.6369	5.3277	0.8067	0.6606	-0.9361	-8.3806	-0.0227	0.333	0.333	0.333	0.333	0.333	0.333	0.333	0.333	0.333	0.333	0.333	0.333	0.333	0.333	0.333	0.333	0.333	0.333	0.333	6.327	1.6764	5.7517	5	218	1.40290562692509	1	0
"219"	5	69	4	2	5.35	0	2	1	1	0.628	9.4136	10.5416	3.9467	6.5061	-3.1914	2.6562	4.5155	8.0352	-5.495	0.6903	2.6546	1.9902	7.4671	8.7438	15.4013	4.3345	1.7823	11.7307	6.7444	9.3867	0.3763	0.3104	0.2817	0.324	0.2856	0.3788	0.3175	0.2838	0.3974	0.4425	0.3282	0.4995	0.2196	0.3338	0.4716	0.2422	0.3384	0.23	0.2693	6.3305	1.5942	2.2286	5	219	-0.465215112513938	1	0
"220"	5	55	4	2	5.35	0	10	1	1	3.187	5.6928	11.1024	9.6745	4.0085	3.6656	5.3063	5.9196	5.6625	15.6596	3.0023	8.8642	-6.9795	0.5994	4.5701	10.3291	4.1866	0.7033	9.7181	-0.4936	5.7065	0.3722	0.306	0.2293	0.3403	0.4412	0.2277	0.3484	0.4314	0.2257	0.2886	0.4637	0.2392	0.3462	0.319	0.5279	0.2881	0.4492	0.2745	0.2111	6.3296	1.6222	4.8207	5	220	1.1590800354352	1	0
"221"	5	37	4	-2	-5.35	0	4	-1	1	1.062	-6.7048	-4.8107	-11.3316	-5.6166	-3.4843	-0.396	-7.199	3.162	0.1704	1.5142	2.2428	-14.659	-8.3149	-3.1074	-3.8207	-4.6535	-8.9404	-11.1808	-7.421	-12.5866	0.2241	0.4232	0.235	0.4632	0.3134	0.2488	0.485	0.303	0.4387	0.2888	0.2607	0.3313	0.4089	0.2041	0.241	0.3859	0.4694	0.2044	0.3899	6.3187	1.6083	2.679	5	221	0.0601539228197471	0	1
"222"	5	66	4	-1	-2.675	0	10	-1	1	3.038	-6.2576	-4.8045	-7.7738	-1.0376	-0.5416	3.9547	-3.0883	-11.6555	-8.8658	-3.7167	-5.49	6.3999	4.4944	-2.2218	-8.4334	-6.3233	-2.6877	-0.9975	2.6988	2.9484	0.4597	0.2095	0.4216	0.3797	0.3297	0.3802	0.3385	0.2062	0.2333	0.3706	0.4073	0.203	0.4389	0.4738	0.3405	0.2733	0.367	0.2282	0.2741	6.3351	1.5883	4.6386	5	222	1.11119940417358	0	1
"223"	5	24	4	-1	-2.675	0	9	-1	1	2.724	-6.8273	3.7386	-7.7259	-2.3279	4.5005	-12.8732	-8.1264	2.5556	-6.1348	-5.4309	-0.3325	-8.0157	-2.5781	-0.3412	-0.102	0.2222	4.0747	-0.6973	2.626	-8.2914	0.2639	0.3202	0.4279	0.2372	0.4549	0.2368	0.4867	0.2109	0.2364	0.3524	0.5096	0.3638	0.3991	0.5204	0.2258	0.3287	0.2479	0.2118	0.2897	6.3239	1.6203	4.3577	5	223	1.00210138828727	0	1
"224"	5	26	4	1	2.675	0	6	-1	0	1.628	-0.8218	13.8013	0.0849	-2.9356	2.9112	4.3621	5.2069	6.6312	1.9164	9.2349	-0.939	4.8115	0.6109	-4.0987	-7.354	-0.8063	4.0169	5.5922	9.7229	1.7758	0.2932	0.3963	0.293	0.2512	0.3479	0.4101	0.4837	0.2823	0.3101	0.2484	0.3722	0.2018	0.2781	0.4269	0.2029	0.3616	0.4947	0.2363	0.4318	6.3225	1.4929	3.1284	5	224	0.487352267580348	0	1
"225"	5	54	4	1	2.675	0	20	1	1	7.885	7.0342	14.0594	-5.2958	0.2725	9.3432	-1.552	1.858	0.1762	4.7943	-6.6253	7.2425	-3.4314	3.3287	6.2769	3.6468	0.2499	3.8081	5.6807	0.0455	2.8762	0.2533	0.4034	0.3592	0.2921	0.2211	0.2514	0.3153	0.3877	0.3018	0.5102	0.4136	0.2459	0.3064	0.2238	0.2601	0.4147	0.2138	0.4562	0.4942	6.3243	1.4516	9.336	5	225	2.064962220415	1	0
"226"	5	38	4	-1	-2.675	0	11	-1	1	3.224	-1.4548	-1.2458	-1.2393	-4.2306	-1.3952	-10.4643	2.1089	-9.7433	3.8982	-2.084	-1.6993	0.4258	-4.8254	4.9055	-13.8822	-10.5234	1.252	0.4048	-1.4548	-0.7371	0.2314	0.2728	0.3842	0.4193	0.307	0.4516	0.2392	0.2789	0.2526	0.3003	0.4464	0.3038	0.2375	0.3023	0.4996	0.3208	0.3771	0.4895	0.2167	6.3309	1.5035	4.7245	5	226	1.17062282464438	0	1
"227"	5	59	4	-1	-2.675	1	8	1	0	2.66	-5.2449	0.3721	-3.0108	-9.2797	-6.304	1.6226	5.9108	-1.6591	-12.9585	-0.7133	1.5502	7.8009	-2.4122	-8.7358	-3.9459	-3.3762	0.6264	-4.9107	-4.7682	-4.6154	0.333	0.333	0.333	0.333	0.333	0.333	0.333	0.333	0.333	0.333	0.333	0.333	0.333	0.333	0.333	0.333	0.333	0.333	0.333	6.327	1.4805	4.1608	5	227	0.978326122793608	1	0
"228"	5	14	4	4	10.7	0	7	1	1	2.172	6.7445	4.9064	12.2011	9.4572	3.2498	18.5119	11.0478	6.876	17.7729	11.0517	15.0703	11.506	15.8312	18.635	9.9156	7.2644	12.6903	0.493	14.2378	8.2027	0.3298	0.4552	0.226	0.4935	0.3553	0.2497	0.3402	0.2287	0.2862	0.3703	0.3437	0.4993	0.4056	0.2202	0.3316	0.2646	0.4551	0.205	0.2584	6.3185	1.6966	3.8899	5	228	0.775648402071689	1	0
"229"	5	20	4	2	5.35	1	12	1	1	3.707	1.3535	4.8563	-7.1526	9.2521	9.9992	4.8432	4.7179	1.2493	8.3525	-0.109	7.3374	11.563	3.291	11.7765	7.9694	-2.3109	11.8606	7.2293	4.8482	5.1433	0.333	0.333	0.333	0.333	0.333	0.333	0.333	0.333	0.333	0.333	0.333	0.333	0.333	0.333	0.333	0.333	0.333	0.333	0.333	6.327	1.7024	5.4243	5	229	1.3102229241686	1	0
"230"	5	36	4	-4	-10.7	0	5	-1	1	1.268	-14.4189	0.2397	-14.4294	-19.6641	-11.2392	-4.6118	-13.3771	-16.6416	-5.8923	-8.7034	-14.6697	-7.7237	-17.3412	-7.3111	-7.0168	-8.4608	-6.5547	-14.9231	-10.5788	-10.0643	0.2036	0.269	0.2972	0.362	0.2456	0.4104	0.3758	0.4136	0.2896	0.4062	0.38	0.2938	0.3438	0.4912	0.2691	0.4764	0.2058	0.2713	0.319	6.3234	1.46	2.7354	5	230	0.237440856015034	0	1
"231"	5	1	4	-4	-10.7	1	9	-1	1	2.83	-9.4742	-17.6154	-10.1053	-15.4918	-15.3438	-13.1309	-7.3202	-9.1108	-6.9719	-8.3055	-15.9605	-9.5393	-8.7421	-12.7318	-14.7804	4.5152	-7.6891	-8.3091	-15.6417	-11.8775	0.333	0.333	0.333	0.333	0.333	0.333	0.333	0.333	0.333	0.333	0.333	0.333	0.333	0.333	0.333	0.333	0.333	0.333	0.333	6.327	1.6865	4.5312	5	231	1.04027671165515	0	1
"232"	5	8	4	-4	-10.7	0	4	-1	1	1.254	-12.5352	-9.8266	-6.054	-8.2715	-5.2119	-21.8034	-9.7054	-7.8255	-12.2185	-15.3348	-8.153	-18.8377	-17.7131	-16.5034	-8.0968	-4.5262	-7.5792	-6.3945	-10.951	-7.0274	0.4393	0.2386	0.4253	0.2505	0.3566	0.2796	0.4128	0.2902	0.3586	0.3304	0.2305	0.3041	0.2319	0.2028	0.4998	0.4296	0.3563	0.4398	0.2597	6.3364	1.6843	2.9548	5	232	0.226338442210729	0	1
"233"	5	16	4	-2	-5.35	1	7	-1	1	2.025	-4.2249	-6.6384	-11.0934	-10.4337	-0.3113	-0.9834	-3.0833	0.9079	-7.7643	-1.1112	-11.5537	-3.7246	-11.0884	-4.2264	-8.7479	-5.5873	-14.0115	5.8964	-2.9147	-7.5274	0.333	0.333	0.333	0.333	0.333	0.333	0.333	0.333	0.333	0.333	0.333	0.333	0.333	0.333	0.333	0.333	0.333	0.333	0.333	6.327	1.6001	3.6257	5	233	0.705569700558502	0	1
"234"	5	65	4	-2	-5.35	0	20	1	0	6.951	-8.2275	-3.7427	-6.6462	-11.8994	-4.8263	-8.5948	3.1657	-3.8235	-0.9685	-11.4732	-14.9403	-10.0791	-10.3382	0.1313	-1.4862	-5.7088	-1.0655	-5.487	-4.8259	4.2122	0.3519	0.2743	0.3059	0.3913	0.2249	0.3872	0.3205	0.454	0.222	0.5209	0.3873	0.2396	0.2966	0.446	0.3329	0.2717	0.3577	0.2935	0.2557	6.3338	1.5291	8.4847	5	234	1.93888553411835	1	0
"235"	5	32	4	0	0	1	13	-1	1	4.012	2.7819	-5.0507	3.3182	-2.949	-5.3572	-4.8154	-1.8457	12.1368	5.0931	-8.2092	4.6704	0.0653	2.8575	-2.3788	3.7685	2.3394	1.4545	-2.6641	1.969	-7.862	0.333	0.333	0.333	0.333	0.333	0.333	0.333	0.333	0.333	0.333	0.333	0.333	0.333	0.333	0.333	0.333	0.333	0.333	0.333	6.327	1.421	5.4292	5	235	1.38928987009969	0	1
"236"	5	60	4	0	0	1	16	-1	0	5.046	-3.4024	-1.0158	4.748	3.8855	3.2566	8.0802	-0.7406	6.1812	-3.1009	-1.6529	0.7454	4.2885	-13.6994	-0.07	-5.7136	5.6056	-1.1698	-2.7143	-3.3436	1.7682	0.333	0.333	0.333	0.333	0.333	0.333	0.333	0.333	0.333	0.333	0.333	0.333	0.333	0.333	0.333	0.333	0.333	0.333	0.333	6.327	1.5652	6.6139	5	236	1.61859585021887	0	1
"237"	5	35	4	4	10.7	1	4	1	1	1.322	9.5079	19.7869	15.3999	17.3171	13.1249	8.4755	2.7191	6.9435	2.4196	8.498	15.1903	9.5025	11.5783	10.8533	10.2652	9.7743	14.2447	1.7756	8.2119	16.7837	0.333	0.333	0.333	0.333	0.333	0.333	0.333	0.333	0.333	0.333	0.333	0.333	0.333	0.333	0.333	0.333	0.333	0.333	0.333	6.327	1.6274	2.9726	5	237	0.279145741429495	1	0
"238"	5	9	4	-2	-5.35	0	5	-1	1	1.718	-0.847	-11.2627	-6.6283	-7.6989	-6.6483	-4.1944	-4.6594	5.7213	-13.895	-15.3721	-6.4685	-4.416	-1.1301	-7.6505	-3.3433	0.777	-0.9268	-8.1559	-8.2917	-1.481	0.209	0.4251	0.2225	0.3969	0.5104	0.222	0.2697	0.4841	0.2672	0.3053	0.3517	0.3866	0.4634	0.2476	0.4406	0.2333	0.2764	0.3975	0.2256	6.335	1.6971	3.4354	5	238	0.541160823562064	0	1
"239"	5	70	4	4	10.7	0	4	1	1	1.36	10.2435	16.4963	7.6092	12.4094	15.0043	6.9559	6.7922	12.3504	9.287	5.1796	11.8868	16.4272	1.5358	9.9335	5.4611	1.9236	13.8365	19.9274	12.5983	16.6735	0.2668	0.3761	0.296	0.4688	0.3316	0.263	0.4796	0.204	0.4129	0.2232	0.3704	0.4791	0.4003	0.2238	0.3252	0.2743	0.2311	0.3833	0.3252	6.3346	1.6805	3.0605	5	239	0.307484699747961	1	0
"240"	5	53	4	0	0	0	13	1	1	4.044	0.9708	1.582	7.4307	5.741	-2.1373	4.872	2.4021	-4.3275	7.0995	6.4129	-3.4356	-4.8468	-0.853	7.1948	-0.416	-4.4107	-5.8731	-6.0086	-5.1006	-4.9964	0.3169	0.3666	0.3393	0.3061	0.2257	0.4876	0.317	0.2225	0.3245	0.2318	0.3671	0.4429	0.3774	0.3077	0.5054	0.2524	0.4342	0.28	0.2279	6.3329	1.4179	5.4783	5	240	1.39723430115822	1	0
"241"	5	64	4	-4	-10.7	0	7	-1	1	1.991	-10.9077	-7.697	-15.819	-6.5914	-3.8161	-11.1472	-15.2462	-8.9125	-7.8733	-10.8236	-19.0387	0.8554	-16.6964	-14.0591	-11.4354	-9.8561	-13.1243	-18.1121	-9.2187	-6.0882	0.2569	0.3239	0.2177	0.3246	0.4634	0.2329	0.4556	0.2557	0.4553	0.5235	0.3153	0.2275	0.4493	0.3497	0.2186	0.2479	0.2018	0.4363	0.3723	6.328	1.6403	3.6417	5	241	0.688637025082059	0	1
"242"	5	62	4	2	5.35	1	11	1	1	3.591	0.4094	3.3043	4.0609	-0.0302	13.387	4.7423	13.2144	8.4704	3.9279	12.096	7.6452	4.6258	0.3639	9.3279	8.5038	7.7639	-4.7046	-1.9242	2.7014	7.2807	0.333	0.333	0.333	0.333	0.333	0.333	0.333	0.333	0.333	0.333	0.333	0.333	0.333	0.333	0.333	0.333	0.333	0.333	0.333	6.327	1.6385	5.2421	5	242	1.27843071524395	1	0
"243"	5	29	4	-4	-10.7	1	6	-1	1	1.717	-9.3513	-15.4985	-18.7097	-13.4372	-17.9462	-4.048	-16.3026	-5.935	-12.7616	-7.3692	-0.3274	-2.8983	-16.3289	-11.968	-8.5881	-12.7963	-8.3413	-12.0585	-10.2989	-9.706	0.333	0.333	0.333	0.333	0.333	0.333	0.333	0.333	0.333	0.333	0.333	0.333	0.333	0.333	0.333	0.333	0.333	0.333	0.333	6.327	1.5989	3.3175	5	243	0.540578581915338	0	1
"244"	5	56	4	4	10.7	0	3	1	1	0.857	9.7151	19.8788	5.7551	14.6027	7.6362	4.3961	12.4966	17.5357	8.6446	11.2227	11.6712	19.3639	18.5962	11.5138	6.2271	9.9459	4.3611	6.0293	8.5641	5.4905	0.3134	0.4154	0.4409	0.3801	0.2283	0.4633	0.2607	0.4555	0.2016	0.3125	0.371	0.2936	0.3971	0.2828	0.2092	0.251	0.4246	0.2425	0.3842	6.328	1.4464	2.3078	5	244	-0.154317360384357	1	0
"245"	5	41	4	2	5.35	0	18	1	1	5.624	7.1366	3.1522	7.4754	5.889	-1.4639	5.5025	9.5926	7.7048	3.9961	11.0218	-4.2828	10.5234	5.1996	12.4512	2.0615	2.2025	12.1894	-4.7876	6.4257	4.7992	0.3577	0.3186	0.206	0.5126	0.2611	0.3736	0.3364	0.3738	0.221	0.2996	0.4044	0.2916	0.2233	0.3547	0.2516	0.2963	0.4008	0.5205	0.327	6.3306	1.6134	7.2417	5	245	1.72704315450836	1	0
"246"	5	7	4	4	10.7	1	3	1	1	0.82	10.4191	8.8623	6.6544	6.3756	8.8559	10.4187	21.341	15.6696	10.8789	7.5531	9.3137	-1.6279	10.131	14.8959	8.6618	16.273	15.9285	16.248	7.9844	9.681	0.333	0.333	0.333	0.333	0.333	0.333	0.333	0.333	0.333	0.333	0.333	0.333	0.333	0.333	0.333	0.333	0.333	0.333	0.333	6.327	1.7189	2.5371	5	246	-0.198450938723838	1	0
"247"	5	43	4	-4	-10.7	1	3	-1	1	0.847	-6.3192	-19.6195	-7.6322	-10.0814	-17.0386	-3.6136	-4.7143	-11.2948	-8.407	-18.9186	-9.8148	-11.6178	-4.557	-11.187	-11.985	-8.8664	-7.6656	-15.1268	-6.3883	-19.2863	0.333	0.333	0.333	0.333	0.333	0.333	0.333	0.333	0.333	0.333	0.333	0.333	0.333	0.333	0.333	0.333	0.333	0.333	0.333	6.327	1.4568	2.3141	5	247	-0.166054584330083	0	1
"248"	5	67	4	0	0	0	11	-1	0	3.284	-0.0983	-2.2916	-5.7694	0.7046	0.114	-1.5409	6.9628	-3.9205	-5.0695	-2.2922	-2.1417	1.2247	-7.515	7.4123	-8.839	5.6907	2.7154	3.6322	2.2395	9.0265	0.3907	0.2481	0.2951	0.416	0.2276	0.2748	0.218	0.4599	0.3671	0.2041	0.4843	0.4533	0.4071	0.367	0.2028	0.4681	0.3435	0.2368	0.2625	6.3266	1.525	4.8176	5	248	1.18906219159018	0	1
"249"	5	58	4	-2	-5.35	1	5	-1	1	1.461	-5.1977	-7.7081	-17.0902	-14.6888	1.0723	-5.2349	-10.4879	3.0805	-5.6897	0.9577	-1.9164	-3.5055	-5.3253	-5.6278	-0.0426	-5.933	-8.7617	-3.0938	-4.9789	-8.5929	0.333	0.333	0.333	0.333	0.333	0.333	0.333	0.333	0.333	0.333	0.333	0.333	0.333	0.333	0.333	0.333	0.333	0.333	0.333	6.327	1.5857	3.0622	5	249	0.379121132768562	0	1
"250"	5	52	4	-1	-2.675	0	3	-1	1	1.206	0.2829	-7.699	-14.1262	-5.6417	-1.7761	4.8365	-0.5089	-0.9074	-2.1353	-8.8286	-1.2068	-5.2116	-2.4128	-4.34	-5.1583	-4.224	3.0975	5.0799	-7.19	5.3678	0.5069	0.2163	0.5312	0.2084	0.3753	0.3188	0.2914	0.2562	0.3569	0.4455	0.2026	0.2743	0.3191	0.4707	0.246	0.5046	0.2199	0.3713	0.2192	6.3346	1.7185	2.9398	5	250	0.187309098304994	0	1
"251"	5	39	4	0	0	0	7	1	0	2.068	0.8674	-1.138	5.1417	4.2385	4.768	-7.2287	4.5553	-1.3169	1.738	-2.3938	-7.428	-7.5672	-5.448	-4.292	4.0512	-1.4534	-2.02	4.6657	1.8505	10.056	0.2963	0.3888	0.4594	0.233	0.2811	0.3421	0.23	0.3104	0.2051	0.5283	0.4114	0.3195	0.3562	0.4017	0.3293	0.3643	0.2899	0.3495	0.2404	6.3369	1.639	3.7192	5	251	0.726581956646183	1	0
"252"	5	4	4	0	0	1	11	1	0	3.463	-3.5391	0.7587	3.2703	-1.1277	5.6376	-2.3726	-5.1785	-7.751	2.0887	4.8163	-10.403	-1.9495	0.0025	4.1934	5.2825	2.8832	9.0248	-2.3821	-7.0372	2.028	0.333	0.333	0.333	0.333	0.333	0.333	0.333	0.333	0.333	0.333	0.333	0.333	0.333	0.333	0.333	0.333	0.333	0.333	0.333	6.327	1.6403	5.114	5	252	1.24213526542028	1	0
"253"	5	40	4	1	2.675	0	5	1	1	1.299	-0.9176	3.9762	3.475	3.2863	-0.3239	3.8517	5.7363	-1.4547	1.6399	-5.0518	5.3987	0.8127	2.3585	5.361	13.0118	-0.6713	2.4436	-5.6307	-0.1476	15.4506	0.2007	0.4438	0.3163	0.212	0.3255	0.3738	0.2508	0.4469	0.3207	0.4973	0.4696	0.3751	0.2006	0.3102	0.2766	0.4339	0.2649	0.3677	0.2335	6.3199	1.717	3.0334	5	253	0.261594737688462	1	0
"254"	5	48	4	2	5.35	1	8	1	1	2.47	2.4926	2.9856	11.6561	-3.9681	13.1172	9.0501	8.4665	4.9124	0.5989	6.2318	5.4721	0.1038	4.5941	3.9733	-1.6327	12.1889	11.4514	11.9185	4.2267	0.3265	0.333	0.333	0.333	0.333	0.333	0.333	0.333	0.333	0.333	0.333	0.333	0.333	0.333	0.333	0.333	0.333	0.333	0.333	0.333	6.327	1.4441	3.9208	5	254	0.904218150639886	1	0
"255"	5	25	4	0	0	0	10	-1	1	3.298	1.3695	-0.2399	-2.0921	-5.9466	-0.9944	13.985	-4.4544	-2.7974	3.4037	-1.1296	4.7149	-2.6467	-10.54	-1.0472	4.1031	2.7867	-2.5517	5.3053	0.8253	-0.8855	0.3283	0.4066	0.2263	0.3037	0.2526	0.4757	0.2543	0.3055	0.4851	0.3239	0.2721	0.465	0.2989	0.2194	0.4978	0.2451	0.218	0.3209	0.424	6.3232	1.5119	4.8153	5	255	1.19331622413741	0	1
"256"	5	46	4	0	0	1	20	-1	0	7.573	4.5166	-4.9508	-5.4451	0.9526	1.0927	-3.7958	-0.6874	7.1116	-4.1337	2.5395	-0.0266	-4.4188	-3.8278	6.2717	-4.5454	-2.624	-2.168	6.8103	11.6028	-2.4304	0.333	0.333	0.333	0.333	0.333	0.333	0.333	0.333	0.333	0.333	0.333	0.333	0.333	0.333	0.333	0.333	0.333	0.333	0.333	6.327	1.6936	9.2738	5	256	2.02458929013169	0	1
"257"	5	18	4	0	0	1	14	-1	0	4.501	1.2274	-3.6783	14.9419	3.7587	-3.1512	3.7058	5.8023	0.1828	1.9875	3.8564	0.152	-5.9095	-1.1733	-6.5487	-3.2106	-2.5956	4.2267	-3.0695	-2.83	-5.6894	0.333	0.333	0.333	0.333	0.333	0.333	0.333	0.333	0.333	0.333	0.333	0.333	0.333	0.333	0.333	0.333	0.333	0.333	0.333	6.327	1.6377	6.1348	5	257	1.5042995943108	0	1
"258"	5	10	4	-1	-2.675	0	18	1	0	5.857	-2.0581	9.2269	-5.8147	4.9259	-5.0967	-6.1905	-1.328	-2.6606	-11.5497	3.1112	-1.0605	-8.6511	-5.8789	-1.4369	3.6046	-3.0365	-4.4794	-6.4749	-2.36	-7.6552	0.4761	0.281	0.5014	0.213	0.3612	0.5176	0.3166	0.2562	0.2959	0.2459	0.339	0.4351	0.3075	0.2298	0.2769	0.242	0.3186	0.4467	0.2644	6.3249	1.6017	7.4579	5	258	1.76763752710765	1	0
"259"	5	15	4	-4	-10.7	1	3	-1	1	0.836	-10.6666	-18.961	-13.9452	-18.2561	-2.394	-6.6068	-18.3213	-6.3479	-5.4815	-10.756	-11.0165	-13.0255	-16.6047	-3.4534	-11.6127	-12.6068	-5.7658	-12.9802	-4.4623	-11.0598	0.333	0.333	0.333	0.333	0.333	0.333	0.333	0.333	0.333	0.333	0.333	0.333	0.333	0.333	0.333	0.333	0.333	0.333	0.333	6.327	1.6835	2.537	5	259	-0.179126665897435	0	1
"260"	5	51	4	-2	-5.35	0	13	-1	1	3.98	-5.3441	-2.7943	-6.2525	-4.8053	-12.5821	-11.9382	-3.0586	-9.1056	-4.7807	-5.9551	0.6031	-11.5575	1.4426	3.1341	0.1909	-1.3832	-14.366	-1.8611	-6.9994	-8.6312	0.263	0.5037	0.2608	0.206	0.3529	0.3145	0.4015	0.3563	0.2213	0.279	0.3818	0.2334	0.4747	0.3971	0.467	0.2564	0.3933	0.2587	0.2975	6.3187	1.6289	5.6312	5	260	1.38128181929635	0	1
"261"	5	12	4	1	2.675	0	3	1	1	0.708	2.9878	1.4088	-5.0861	0.0234	8.9461	4.0511	5.6007	2.2018	-4.2048	0.9121	0.3785	2.1909	3.9554	-6.0016	8.554	12.0738	5.7408	10.3571	-0.886	-0.4864	0.3011	0.3504	0.2192	0.4463	0.388	0.2454	0.3896	0.3049	0.4484	0.2382	0.2854	0.2283	0.4218	0.3135	0.2532	0.5252	0.2368	0.2664	0.472	6.3342	1.6808	2.4092	5	261	-0.345311185288417	1	0
"262"	5	49	4	4	10.7	1	5	1	1	1.339	15.4219	10.2305	12.5489	6.5637	2.5442	16.4471	18.912	4.3536	9.129	10.0107	13.0113	14.1256	17.1852	14.9362	1.0961	9.3757	12.6772	11.4533	8.8531	4.053	0.333	0.333	0.333	0.333	0.333	0.333	0.333	0.333	0.333	0.333	0.333	0.333	0.333	0.333	0.333	0.333	0.333	0.333	0.333	6.327	1.6465	2.9899	5	262	0.291923066709035	1	0
"263"	5	11	4	0	0	0	6	1	0	1.978	3.9111	-5.9126	3.4609	4.8436	5.2915	6.2722	-5.3397	-1.3534	-2.3683	-0.0745	2.0782	-0.1264	4.0357	-1.9334	-2.6188	-1.6384	-10.656	-7.7555	7.3578	2.8649	0.4624	0.2457	0.2713	0.4084	0.3051	0.3967	0.2595	0.3668	0.4278	0.3988	0.3645	0.2226	0.256	0.519	0.3391	0.2426	0.3845	0.2024	0.2631	6.3363	1.5064	3.495	5	263	0.68208623320052	1	0
"264"	5	2	4	-2	-5.35	1	5	-1	1	1.645	-4.3811	-6.5354	3.774	-2.6731	-2.9395	-0.4036	-2.354	-8.0221	-8.1771	-7.9597	-14.0833	-4.2138	-5.1915	-5.4827	-12.7696	-5.0876	-0.9727	-10.5886	-13.1687	4.3601	0.333	0.333	0.333	0.333	0.333	0.333	0.333	0.333	0.333	0.333	0.333	0.333	0.333	0.333	0.333	0.333	0.333	0.333	0.333	6.327	1.5396	3.1957	5	264	0.497740384217335	0	1
"265"	5	28	4	4	10.7	0	2	1	1	0.544	15.1245	16.2598	2.6926	17.1089	9.4235	9.7406	12.8582	14.2135	16.9632	20.3423	1.0477	7.189	8.9659	10.2419	12.0955	6.4681	5.6892	6.8406	7.8276	11.9974	0.4935	0.2433	0.4092	0.3062	0.3565	0.4295	0.3025	0.234	0.3016	0.2527	0.3335	0.2117	0.3478	0.4103	0.3377	0.265	0.3504	0.2299	0.5042	6.3195	1.5262	2.0783	5	265	-0.608806032126194	1	0
"266"	5	22	4	-4	-10.7	0	2	-1	1	0.599	-9.146	-11.218	-4.459	-12.1619	-16.1838	-10.6821	-12.4237	-8.3435	-17.1491	-6.5454	-16.8535	-4.5656	-11.9091	-16.7801	-5.4173	-9.8372	-18.8333	-2.6195	-4.5837	-12.6922	0.2954	0.5015	0.2875	0.4338	0.4644	0.3653	0.2446	0.2043	0.2813	0.2149	0.3646	0.2086	0.4623	0.3438	0.3917	0.3288	0.4512	0.2195	0.259	6.3226	1.4215	2.033	5	266	-0.512493680866688	0	1
"267"	5	68	4	1	2.675	0	3	1	1	0.778	4.8371	1.8905	-6.9115	2.807	2.0062	-4.6371	12.4634	1.2088	-0.9484	6.294	6.3156	0.4482	-2.0675	5.006	-0.6556	6.688	5.9872	-3.3112	2.8479	11.7186	0.3845	0.3162	0.4549	0.2922	0.4657	0.3143	0.2066	0.3765	0.2401	0.2983	0.438	0.3476	0.4622	0.2074	0.4633	0.2697	0.2165	0.268	0.3071	6.329	1.4404	2.2282	5	267	-0.251028754803745	1	0
"268"	5	23	4	-2	-5.35	0	3	-1	1	0.745	-7.5724	-6.4216	-1.4549	-1.2844	5.943	-7.1748	-5.4308	2.2063	-8.9873	-0.0248	0.1625	-5.958	-9.1159	-8.1662	-4.5479	-12.8444	-11.0556	-6.0659	-11.6678	-8.1506	0.2214	0.2649	0.4988	0.2198	0.2651	0.4044	0.2433	0.2801	0.4656	0.319	0.3907	0.4631	0.3444	0.261	0.3085	0.2113	0.4964	0.2625	0.4018	6.3221	1.7122	2.4626	5	268	-0.294371060602578	0	1
"269"	5	6	4	2	5.35	1	4	1	1	1.055	6.393	1.81	-0.7478	4.5945	6.4407	2.2395	6.9091	2.4654	16.2936	6.7908	11.316	4.2965	10.8303	2.3737	3.6665	-4.6061	5.7893	3.7072	15.1713	0.9315	0.333	0.333	0.333	0.333	0.333	0.333	0.333	0.333	0.333	0.333	0.333	0.333	0.333	0.333	0.333	0.333	0.333	0.333	0.333	6.327	1.5318	2.5891	5	269	0.0535407669280298	1	0
"270"	5	17	4	-1	-2.675	1	7	1	0	2.331	-4.0366	-17.865	-4.7086	3.2546	0.3603	-0.8778	-2.4186	-7.9196	-7.1262	-0.6747	5.3372	-6.028	-4.7649	1.9477	0.0068	-2.2504	3.3709	-3.2596	-4.7706	-0.5085	0.333	0.333	0.333	0.333	0.333	0.333	0.333	0.333	0.333	0.333	0.333	0.333	0.333	0.333	0.333	0.333	0.333	0.333	0.333	6.327	1.5775	3.9148	5	270	0.84629736005362	1	0
"271"	5	50	4	-4	-10.7	0	3	-1	1	1.207	-7.6602	-14.9512	-7.8337	-11.0952	-16.2342	-8.0493	-5.3485	-4.9712	-16.7377	-19.9242	-11.1916	-8.3919	-17.8775	-7.8837	-2.3601	-12.3846	-10.6018	-3.5764	-15.6024	-11.6609	0.257	0.5112	0.4519	0.2185	0.3644	0.4511	0.2277	0.2574	0.516	0.3634	0.2116	0.2659	0.2011	0.5177	0.3752	0.2363	0.3229	0.3787	0.2078	6.336	1.6248	2.8408	5	271	0.188137942115395	0	1
"272"	5	44	4	-2	-5.35	1	4	-1	1	1.075	-2.9141	-14.5682	-16.6787	-3.0669	1.3516	-3.6166	-3.4293	-0.8164	-5.3901	-6.8449	-10.6716	-7.0009	-6.3858	-6.617	-0.7459	-4.0992	3.5122	-1.7297	-4.9716	-10.4408	0.333	0.333	0.333	0.333	0.333	0.333	0.333	0.333	0.333	0.333	0.333	0.333	0.333	0.333	0.333	0.333	0.333	0.333	0.333	6.327	1.4595	2.5424	5	272	0.0723206615796261	0	1
"273"	5	3	4	-1	-2.675	1	12	-1	1	3.72	-2.4703	-3.2353	-2.3133	-2.8052	0.1036	-0.9646	5.3476	-6.5332	-2.1961	-2.091	-5.5439	0.8844	-7.3647	-0.4474	-2.649	-7.3078	-9.4494	-2.0198	-11.6186	10.8356	0.333	0.333	0.333	0.333	0.333	0.333	0.333	0.333	0.333	0.333	0.333	0.333	0.333	0.333	0.333	0.333	0.333	0.333	0.333	6.327	1.5689	5.2871	5	273	1.31372366828506	0	1
"274"	5	13	4	2	5.35	0	3	1	1	0.963	7.8808	9.1772	5.8817	9.4041	3.4466	2.4894	5.7735	6.1202	-4.1482	4.7112	5.4047	10.4879	8.3474	5.9116	2.8608	7.6623	3.2177	7.9853	13.1996	-9.7004	0.4474	0.3533	0.5069	0.4077	0.3545	0.303	0.211	0.4148	0.2075	0.3472	0.2672	0.3791	0.2026	0.3456	0.2007	0.4872	0.2039	0.4825	0.2087	6.3309	1.4459	2.4306	5	274	-0.0377018671840115	1	0
"275"	5	5	4	1	2.675	1	2	1	1	0.639	3.4838	2.618	5.7925	-7.244	-0.1758	0.5113	6.2538	-2.9954	8.9574	-7.6549	-1.5508	2.0244	5.426	7.5173	5.0413	2.3557	6.5122	3.0888	11.6167	2.2076	0.333	0.333	0.333	0.333	0.333	0.333	0.333	0.333	0.333	0.333	0.333	0.333	0.333	0.333	0.333	0.333	0.333	0.333	0.333	6.327	1.5951	2.2563	5	275	-0.447850824604602	1	0
"276"	5	61	4	1	2.675	1	3	1	1	0.898	7.4063	9.109	-6.3713	-1.8422	0.1997	5.9788	2.9482	8.0241	-7.3592	2.7653	3.7816	2.8052	-0.7071	6.9757	-2.9694	0.8869	3.4584	10.0952	-0.6138	7.5533	0.333	0.333	0.333	0.333	0.333	0.333	0.333	0.333	0.333	0.333	0.333	0.333	0.333	0.333	0.333	0.333	0.333	0.333	0.333	6.327	1.641	2.5483	5	276	-0.107585210679937	1	0
"277"	5	57	4	-4	-10.7	1	2	-1	1	0.661	-9.956	-16.9061	-11.3582	-16.1287	-15.7581	-1.4973	-12.0471	-2.4417	-5.0079	-4.1557	-12.9059	-3.695	-9.8322	-14.3147	-12.872	-10.6263	-13.0806	-16.9486	-10.1056	-15.3232	0.333	0.333	0.333	0.333	0.333	0.333	0.333	0.333	0.333	0.333	0.333	0.333	0.333	0.333	0.333	0.333	0.333	0.333	0.333	6.327	1.5453	2.2119	5	277	-0.414001439130451	0	1
"278"	5	21	4	4	10.7	1	3	1	1	0.981	14.0605	8.0551	4.465	7.3162	21.3627	3.8586	8.2377	15.1731	15.4064	13.8866	16.0738	7.6292	5.5751	5.923	6.3069	12.4327	5.5611	11.6397	13.0392	16.7731	0.333	0.333	0.333	0.333	0.333	0.333	0.333	0.333	0.333	0.333	0.333	0.333	0.333	0.333	0.333	0.333	0.333	0.333	0.333	6.327	1.6353	2.6319	5	278	-0.019182819416774	1	0
