"subNo"	"index"	"block"	"level"	"mean"	"periodicity"	"nEvents"	"answer"	"isCorrect"	"rt"	"s1"	"s2"	"s3"	"s4"	"s5"	"s6"	"s7"	"s8"	"s9"	"s10"	"s11"	"s12"	"s13"	"s14"	"s15"	"s16"	"s17"	"s18"	"s19"	"s20"	"t1"	"t2"	"t3"	"t4"	"t5"	"t6"	"t7"	"t8"	"t9"	"t10"	"t11"	"t12"	"t13"	"t14"	"t15"	"t16"	"t17"	"t18"	"t19"	"seqDuration"	"startInterval"	"trialDuration"	"pID"	"Trial"	"rtLog"	"right"	"left"
"1"	4	36	1	-4	-4.84	0	6	-1	1	1.684	-3.6158	3.7721	-10.7167	-4.4961	-6.6443	-4.0065	0.1762	-13.9329	5.923	-10.2838	-4.1852	0.025	-7.1748	-9.8227	-2.4983	-6.4306	-11.253	-5.2779	-3.2914	-4.5903	0.33	0.2557	0.3508	0.2221	0.2822	0.53	0.2445	0.4767	0.3541	0.2854	0.2099	0.3901	0.2824	0.2124	0.3973	0.2905	0.4262	0.4818	0.3066	6.3288	1.527	3.218	4	1	0.521171915820135	0	1
"2"	4	54	1	1	1.21	0	5	1	1	1.707	5.7266	7.2266	9.8777	-6.6744	2.241	-0.8751	-3.4005	1.7608	-0.9226	1.8746	-4.6072	2.2173	4.6677	-3.4395	6.666	0.9556	8.6622	-3.4529	4.7846	-7.1341	0.3354	0.2957	0.347	0.5115	0.3908	0.2548	0.4463	0.5077	0.3891	0.2554	0.3592	0.2025	0.4123	0.3417	0.2721	0.3071	0.2484	0.2071	0.2347	6.3188	1.4652	3.1744	4	2	0.534737443812304	1	0
"3"	4	6	1	2	2.42	1	5	1	1	1.389	2.1655	4.2303	3.2697	1.236	8.0469	4.9415	-1.094	-3.5803	8.8322	2.8819	3.1052	-3.4031	6.8905	-1.5552	0.3194	-10.8211	3.52	10.7355	5.7923	2.5084	0.333	0.333	0.333	0.333	0.333	0.333	0.333	0.333	0.333	0.333	0.333	0.333	0.333	0.333	0.333	0.333	0.333	0.333	0.333	6.327	1.5561	2.9565	4	3	0.328584063772207	1	0
"4"	4	22	1	-4	-4.84	0	5	-1	1	1.448	-2.4831	-5.2118	-10.3646	-6.0806	-15.7186	0.9535	2.0725	0.9568	-3.7917	-1.4184	-9.5663	1.9554	-11.1887	-9.1437	-0.6749	-9.9732	-4.1184	-5.5121	-3.1956	-3.4271	0.3079	0.2393	0.2738	0.4852	0.4286	0.2625	0.2043	0.3045	0.2337	0.2927	0.3467	0.2188	0.3361	0.3714	0.4258	0.3513	0.4163	0.5199	0.311	6.3298	1.6245	3.0817	4	4	0.370183293963525	0	1
"5"	4	64	1	-4	-4.84	0	6	-1	1	1.578	-7.9007	-5.9279	-5.0138	-4.9824	-16.2993	-2.3326	4.1344	-4.8714	-2.4086	-10.1167	1.4574	1.4101	-9.5431	-7.671	-1.9122	-1.274	-12.7762	-3.7609	-6.3014	-1.6709	0.2717	0.2463	0.32	0.2067	0.4243	0.4718	0.3557	0.2089	0.272	0.5131	0.4004	0.2757	0.3583	0.4738	0.2103	0.3562	0.2638	0.2208	0.4783	6.328	1.6004	3.1783	4	5	0.456158222423683	0	1
"6"	4	52	1	-1	-1.21	0	7	1	0	2.367	-4.1836	2.1408	4.6132	-3.0315	-8.7678	1.7926	-7.4896	-6.2376	-1.3365	4.3426	-6.366	3.4075	1.3776	3.5626	-0.7786	-8.7626	3.061	-0.9825	-6.1656	6.8346	0.4308	0.3756	0.252	0.3641	0.2385	0.4405	0.5142	0.2692	0.4692	0.3164	0.2638	0.3276	0.2271	0.2868	0.3338	0.2495	0.3788	0.2816	0.3159	6.3353	1.6254	4.0013	4	6	0.861623330531847	1	0
"7"	4	43	1	-4	-4.84	1	5	-1	1	1.524	-8.4606	-3.4652	-11.1427	-12.1294	-11.9754	-11.3195	-3.1621	-1.4874	-2.4878	0.0872	-4.0024	-3.0703	-8.6183	-0.3528	-8.244	-3.8498	-8.8652	-4.6875	4.325	4.3947	0.333	0.333	0.333	0.333	0.333	0.333	0.333	0.333	0.333	0.333	0.333	0.333	0.333	0.333	0.333	0.333	0.333	0.333	0.333	6.327	1.574	3.1077	4	7	0.421338457264455	0	1
"8"	4	13	1	2	2.42	0	5	1	1	1.626	-0.6751	9.7559	-5.1915	3.7394	6.4179	-2.6535	10.0551	3.4851	1.5864	8.1188	-5.8919	-0.3627	-0.749	3.9579	-1.311	2.1783	-3.1827	8.4997	1.8759	8.3823	0.3735	0.2405	0.3483	0.4869	0.291	0.2172	0.4927	0.3852	0.2603	0.3028	0.3366	0.2932	0.2339	0.4195	0.2816	0.4207	0.383	0.2436	0.3169	6.3274	1.7139	3.3438	4	8	0.486123011125619	1	0
"9"	4	47	1	1	1.21	1	5	1	1	1.593	1.897	-3.2577	2.3185	3.1437	6.2522	-3.8853	-1.9987	2.9234	1.6649	-10.3696	0.0659	6.2003	4.8018	8.8698	0.8484	4.2003	-7.5231	9.0514	1.4969	-1.4798	0.333	0.333	0.333	0.333	0.333	0.333	0.333	0.333	0.333	0.333	0.333	0.333	0.333	0.333	0.333	0.333	0.333	0.333	0.333	6.327	1.5513	3.1435	4	9	0.465619030927911	1	0
"10"	4	1	1	-4	-4.84	1	5	-1	1	1.638	-8.7542	0.7596	0.1315	-13.6448	-0.2944	-9.9151	-8.8502	-2.5673	-2.1285	-11.7146	-3.5043	-6.7177	-7.1543	0.5515	1.4658	1.7302	-2.8492	-8.1691	-1.5221	-12.5006	0.333	0.333	0.333	0.333	0.333	0.333	0.333	0.333	0.333	0.333	0.333	0.333	0.333	0.333	0.333	0.333	0.333	0.333	0.333	6.327	1.6541	3.3058	4	10	0.493475985430878	0	1
"11"	4	61	1	1	1.21	1	5	1	1	1.393	3.7559	0.3057	4.203	-3.8351	-8.3332	-3.5833	-2.0005	3.764	12.8221	9.6315	7.2741	-1.2711	0.3075	2.0543	0.5775	-1.4613	-1.6657	3.6787	-0.618	-2.0929	0.333	0.333	0.333	0.333	0.333	0.333	0.333	0.333	0.333	0.333	0.333	0.333	0.333	0.333	0.333	0.333	0.333	0.333	0.333	6.327	1.4605	2.8766	4	11	0.331459694797669	1	0
"12"	4	70	1	4	4.84	0	5	1	1	1.508	0.1689	-1.8343	1.1453	10.208	5.8643	11.9045	4.6179	-1.507	9.4467	0.6278	-0.6588	9.3311	2.111	5.9823	5.5058	4.7097	16.5883	6.4012	-0.5482	6.0626	0.4414	0.2094	0.2518	0.3849	0.2781	0.2496	0.4157	0.4705	0.2976	0.2132	0.4079	0.379	0.4559	0.2549	0.2932	0.3978	0.3103	0.3884	0.2198	6.3194	1.6822	3.209	4	12	0.410784269585764	1	0
"13"	4	40	1	1	1.21	0	6	1	1	1.861	0.4753	7.1416	-0.3661	5.5577	3.6286	-4.9216	-3.7033	-3.7437	0.0409	-4.7397	-3.6767	2.0959	1.0212	-0.7877	5.2815	13.9598	0.4143	-6.0168	4.1715	7.0413	0.5118	0.2111	0.4712	0.203	0.3065	0.36	0.2248	0.3717	0.2686	0.3088	0.4862	0.3974	0.2294	0.3127	0.3415	0.5293	0.2539	0.2154	0.3313	6.3345	1.5501	3.4279	4	13	0.621113977660114	1	0
"14"	4	4	1	0	0	1	8	-1	1	2.604	-2.3022	-0.2625	-2.0976	4.2537	-7.2869	0.357	1.0042	2.4106	7.6949	-0.1141	-1.1007	3.4862	6.9934	0.4427	3.7204	-13.4244	0.3282	-4.2433	3.6689	-5.2755	0.333	0.333	0.333	0.333	0.333	0.333	0.333	0.333	0.333	0.333	0.333	0.333	0.333	0.333	0.333	0.333	0.333	0.333	0.333	6.327	1.5503	4.171	4	14	0.957048724346323	0	1
"15"	4	20	1	2	2.42	1	5	1	1	1.357	1.1351	2.1963	8.0871	0.4372	-1.8361	2.8054	0.7214	-0.0041	-2.8028	-0.2457	-0.3964	0.8502	19.8684	4.2683	1.6844	3.5793	3.1917	-1.5173	-0.1197	6.8435	0.333	0.333	0.333	0.333	0.333	0.333	0.333	0.333	0.333	0.333	0.333	0.333	0.333	0.333	0.333	0.333	0.333	0.333	0.333	6.327	1.5871	2.9577	4	15	0.305276380852732	1	0
"16"	4	34	1	2	2.42	1	5	1	1	1.489	2.8194	-3.2524	3.7748	0.1055	11.2419	1.2411	3.3586	-5.1211	-2.1721	-5.3344	8.1086	1.8418	10.3256	1.9859	3.5524	-0.5886	9.782	-2.8289	5.9164	2.2204	0.333	0.333	0.333	0.333	0.333	0.333	0.333	0.333	0.333	0.333	0.333	0.333	0.333	0.333	0.333	0.333	0.333	0.333	0.333	6.327	1.6158	3.1065	4	16	0.398104753701872	1	0
"17"	4	15	1	-4	-4.84	1	10	-1	1	3.062	-4.3781	4.8838	-0.8984	-9.8744	-5.0329	-6.0853	-2.3176	0.3083	-12.9357	-13.3148	1.8468	-10.6846	-4.2929	-4.6397	-2.1635	-7.3419	-4.7436	-10.2889	1.7721	-6.0929	0.333	0.333	0.333	0.333	0.333	0.333	0.333	0.333	0.333	0.333	0.333	0.333	0.333	0.333	0.333	0.333	0.333	0.333	0.333	6.327	1.5034	4.5797	4	17	1.11906829723549	0	1
"18"	4	35	1	4	4.84	1	4	1	1	1.29	7.7321	4.9547	4.1392	6.9605	12.3706	13.2167	-2.8266	-3.2238	7.1915	5.7096	7.3437	-0.9065	3.424	6.4877	0.648	4.7288	9.2761	8.0274	-5.9539	7.669	0.333	0.333	0.333	0.333	0.333	0.333	0.333	0.333	0.333	0.333	0.333	0.333	0.333	0.333	0.333	0.333	0.333	0.333	0.333	6.327	1.5197	2.8237	4	18	0.254642218373581	1	0
"19"	4	23	1	-2	-2.42	0	6	-1	1	1.994	-3.0808	-10.012	-3.2765	-10.0911	-7.9991	-0.177	0.8452	0.1647	2.643	2.6659	-0.8723	-5.4278	2.529	-4.406	-3.2292	4.6534	2.462	-9.0677	-8.9117	3.6351	0.3838	0.3356	0.4637	0.2425	0.3667	0.3187	0.2145	0.3025	0.3358	0.2095	0.473	0.3135	0.4851	0.2906	0.2343	0.2967	0.4413	0.2913	0.3375	6.3367	1.5017	3.4945	4	19	0.690142671539647	0	1
"20"	4	33	1	1	1.21	1	11	1	1	3.399	-2.9994	-5.4569	5.033	1.9466	-2.9195	1.0204	-2.0845	14.9101	3.5907	-0.3975	-7.2433	2.7599	1.5251	4.9213	-1.4313	5.0666	-4.4734	-1.0663	4.2783	5.3392	0.333	0.333	0.333	0.333	0.333	0.333	0.333	0.333	0.333	0.333	0.333	0.333	0.333	0.333	0.333	0.333	0.333	0.333	0.333	6.327	1.6062	5.0163	4	20	1.22348127071398	1	0
"21"	4	46	1	0	0	1	7	1	1	2.273	4.5165	-2.6949	2.0439	-1.7305	-5.6078	3.1336	2.4014	3.9189	7.8349	-5.1584	-2.0852	-9.3985	2.8423	-2.9695	-7.7262	9.3441	2.3836	-1.3908	-2.4132	2.3813	0.333	0.333	0.333	0.333	0.333	0.333	0.333	0.333	0.333	0.333	0.333	0.333	0.333	0.333	0.333	0.333	0.333	0.333	0.333	6.327	1.6786	3.9575	4	21	0.821100544870406	1	0
"22"	4	60	1	0	0	1	6	1	0	1.963	1.9422	-1.6057	1.28	1.6912	7.0153	2.6817	-6.1371	10.7159	2.244	-4.6506	-0.0475	-1.3008	-8.4669	4.0553	-11.2342	2.1276	0.0115	2.306	-1.4828	-0.6841	0.333	0.333	0.333	0.333	0.333	0.333	0.333	0.333	0.333	0.333	0.333	0.333	0.333	0.333	0.333	0.333	0.333	0.333	0.333	6.327	1.5829	3.5472	4	22	0.674473915294324	1	0
"23"	4	14	1	4	4.84	0	5	1	1	1.44	4.8183	8.7548	-1.5898	3.4748	0.9754	14.9673	8.413	-4.4268	3.304	-0.6687	15.3047	5.4073	3.8	4.5935	8.4277	1.8326	-1.3225	4.6973	7.7825	7.4106	0.2479	0.308	0.2083	0.2445	0.4606	0.3814	0.2574	0.3638	0.4814	0.3316	0.3927	0.316	0.2385	0.5019	0.4307	0.25	0.357	0.254	0.3093	6.3351	1.5012	2.9571	4	23	0.364643113587909	1	0
"24"	4	27	1	2	2.42	0	14	1	1	4.717	-1.8703	4.9319	-4.1308	8.3685	8.6785	4.8871	-9.0526	-1.4599	6.4949	1.2583	6.5012	-1.6446	2.8978	9.6392	6.1396	5.5141	-1.914	-1.1506	3.5141	-1.0336	0.4098	0.2175	0.3202	0.2058	0.3278	0.4827	0.4367	0.3412	0.4163	0.3504	0.286	0.249	0.3446	0.4019	0.3575	0.2664	0.4008	0.3056	0.2005	6.3205	1.4064	6.1347	4	24	1.55117300430212	1	0
"25"	4	56	1	4	4.84	0	5	1	1	1.524	4.1895	4.6408	0.4798	6.4603	0.6427	15.5624	5.9711	9.6788	6.0655	12.5682	5.5115	1.9266	2.2927	-6.17	7.3179	6.5256	-3.1862	7.9365	3.0814	4.9551	0.5321	0.2352	0.3752	0.3037	0.3522	0.217	0.2522	0.3892	0.3212	0.2596	0.4648	0.2555	0.443	0.3135	0.3409	0.2107	0.3416	0.2055	0.5122	6.3253	1.4454	2.9745	4	25	0.421338457264455	1	0
"26"	4	31	1	-1	-1.21	1	5	-1	1	1.437	-5.019	-0.6772	-1.25	-1.3547	-8.0881	-3.0045	2.574	0.1492	-7.2868	5.5789	8.9639	-4.2765	4.086	0.3891	-8.4857	-2.0883	-6.3478	-5.6647	5.7183	0.5701	0.333	0.333	0.333	0.333	0.333	0.333	0.333	0.333	0.333	0.333	0.333	0.333	0.333	0.333	0.333	0.333	0.333	0.333	0.333	6.327	1.5952	3.0376	4	26	0.362557607096888	0	1
"27"	4	58	1	-2	-2.42	1	10	1	0	3.195	-4.1014	1.4338	6.9749	-5.0169	-3.4598	-0.9771	-2.389	1.5871	-1.8585	-2.2034	-6.8464	-7.0757	-1.5759	-4.1627	-5.8671	-8.453	3.8821	8.082	-4.6924	-12.8362	0.333	0.333	0.333	0.333	0.333	0.333	0.333	0.333	0.333	0.333	0.333	0.333	0.333	0.333	0.333	0.333	0.333	0.333	0.333	6.327	1.5216	4.7288	4	27	1.1615870878295	1	0
"28"	4	59	1	-1	-1.21	1	5	1	0	1.438	2.0987	2.489	-1.8595	0.8388	-6.5574	-6.9492	-7.6204	-5.3269	0.0927	-2.8053	3.942	-0.0642	4.2319	6.7024	1.3078	-1.8097	-0.9755	-0.3638	-13.8759	4.2732	0.333	0.333	0.333	0.333	0.333	0.333	0.333	0.333	0.333	0.333	0.333	0.333	0.333	0.333	0.333	0.333	0.333	0.333	0.333	6.327	1.5697	3.0224	4	28	0.363253259298855	1	0
"29"	4	7	1	4	4.84	1	6	1	1	1.981	2.1365	-0.2456	1.2037	8.3103	2.0696	11.7564	-3.7578	9.4011	4.1368	10.2721	13.3643	5.9597	-0.0991	3.8465	6.6991	-5.4429	6.2628	11.1929	2.8306	5.5612	0.333	0.333	0.333	0.333	0.333	0.333	0.333	0.333	0.333	0.333	0.333	0.333	0.333	0.333	0.333	0.333	0.333	0.333	0.333	6.327	1.491	3.4816	4	29	0.683601767716414	1	0
"30"	4	67	1	0	0	0	9	1	0	2.495	3.1469	1.1467	-0.9522	7.5934	7.4507	-1.2289	-7.1041	6.3225	-8.1275	-0.0653	-0.5308	3.6062	-4.8518	2.8534	-7.8761	-0.9247	3.5943	0.76	-7.8487	1.5963	0.2871	0.235	0.368	0.2142	0.3328	0.2369	0.3641	0.3189	0.2354	0.4731	0.4329	0.3416	0.3034	0.2732	0.3535	0.46	0.3722	0.3197	0.4045	6.3264	1.4874	3.9961	4	30	0.914288729203482	1	0
"31"	4	26	1	1	1.21	0	10	1	1	3.289	4.2248	0.0833	-2.28	1.7159	-3.4221	-1.1119	-3.6467	4.7518	10.8986	-0.5466	3.278	-2.436	-5.0395	-2.1315	-2.5604	12.6074	4.3843	5.1179	5.4702	-4.9017	0.2809	0.2309	0.5188	0.3648	0.3215	0.4758	0.2381	0.284	0.4009	0.3226	0.4578	0.2433	0.3944	0.2415	0.207	0.2857	0.4152	0.3885	0.253	6.3248	1.7027	4.9902	4	31	1.19058356720692	1	0
"32"	4	50	1	-4	-4.84	0	6	-1	1	2.043	-3.9989	-1.5724	-2.9919	-7.0087	-1.2087	-5.9154	2.4723	-4.5194	3.0131	-8.0897	-16.6906	-9.4653	-0.8667	-13.7278	-7.2756	-4.1431	2.2798	-8.0354	-3.1867	-6.2836	0.3303	0.4994	0.225	0.426	0.2731	0.3504	0.3157	0.4328	0.2439	0.3999	0.3723	0.3194	0.229	0.3924	0.2062	0.5095	0.209	0.2584	0.3438	6.3365	1.6259	3.6769	4	32	0.714419315835485	0	1
"33"	4	9	1	-2	-2.42	0	13	-1	1	3.71	-7.2684	-6.1505	-1.252	2.5693	2.4225	3.0041	-4.5552	-5.3422	-2.3277	-5.4351	-7.9471	4.9121	-6.476	-2.9621	-11.103	4.7441	-4.7734	-9.2456	2.7194	4.27	0.3999	0.3288	0.2253	0.3099	0.3493	0.3133	0.266	0.324	0.3575	0.3063	0.2748	0.2056	0.3756	0.2827	0.4698	0.3564	0.3134	0.4048	0.469	6.3325	1.4389	5.1444	4	33	1.31103187661934	0	1
"34"	4	39	1	0	0	0	11	1	1	3.252	-3.7566	1.0602	-6.5296	1.2093	-4.2609	-2.9141	3.4794	6.2976	-0.4388	-0.983	10.2257	0.3853	-3.2247	-5.8937	6.4588	-4.5404	4.4182	-4.9316	-4.1433	9.0099	0.2083	0.2482	0.2179	0.2673	0.4256	0.3304	0.2978	0.4002	0.2923	0.3421	0.5066	0.2835	0.4177	0.3784	0.2203	0.3191	0.3709	0.3152	0.488	6.3298	1.7229	4.9698	4	34	1.17927019168556	1	0
"35"	4	38	1	-1	-1.21	0	7	1	0	2.17	-3.4423	0.7378	6.9529	-2.2946	1.6067	1.2199	4.6767	8.0996	-4.6365	-1.9361	-1.4611	-9.9944	-3.0135	-0.5439	-10.3699	-2.3621	-1.7886	-5.2938	-6.2664	6.5807	0.2617	0.2887	0.5116	0.2297	0.2979	0.3775	0.4284	0.4696	0.2712	0.3109	0.2407	0.2096	0.2481	0.4954	0.2153	0.3111	0.465	0.4197	0.2706	6.3229	1.6023	3.7873	4	35	0.774727167552368	1	0
"36"	4	63	1	4	4.84	1	7	1	1	2.108	2.6194	8.738	-0.8283	6.2562	7.6853	0.1343	-1.1149	8.8103	6.5638	4.3265	14.3988	3.6246	4.8587	0.2646	8.2269	-4.6733	1.2658	2.1458	11.1971	11.8942	0.333	0.333	0.333	0.333	0.333	0.333	0.333	0.333	0.333	0.333	0.333	0.333	0.333	0.333	0.333	0.333	0.333	0.333	0.333	6.327	1.6331	3.7586	4	36	0.745739630679116	1	0
"37"	4	3	1	-1	-1.21	1	7	-1	1	2.134	1.0089	-4.165	-4.6756	-0.0018	-3.8738	-10.4166	-2.8023	6.65	0.2639	3.4697	3.8343	4.1931	-6.0429	-0.7037	-4.4588	-4.3424	0.5055	3.0922	6.4359	-11.2916	0.333	0.333	0.333	0.333	0.333	0.333	0.333	0.333	0.333	0.333	0.333	0.333	0.333	0.333	0.333	0.333	0.333	0.333	0.333	6.327	1.6764	3.8181	4	37	0.757998152879562	0	1
"38"	4	18	1	0	0	1	10	1	1	3.111	-3.0617	-8.7373	3.1265	-4.9688	1.8753	5.5698	-9.1583	7.3499	-0.1165	0.022	0.8396	-1.741	-2.0389	-2.9795	8.9802	-2.5764	-3.0408	0.0769	3.5397	6.7037	0.333	0.333	0.333	0.333	0.333	0.333	0.333	0.333	0.333	0.333	0.333	0.333	0.333	0.333	0.333	0.333	0.333	0.333	0.333	6.327	1.4802	4.595	4	38	1.1349442179155	1	0
"39"	4	29	1	-4	-4.84	1	5	-1	1	1.62	-2.682	-5.4222	0.5632	-1.9221	-6.0645	-11.1735	-9.2009	0.3574	-11.3114	-2.5482	3.3765	0.598	2.5169	-9.692	-3.7813	-14.8411	-3.9194	-3.4458	-7.5303	-10.0095	0.333	0.333	0.333	0.333	0.333	0.333	0.333	0.333	0.333	0.333	0.333	0.333	0.333	0.333	0.333	0.333	0.333	0.333	0.333	6.327	1.4774	3.104	4	39	0.482426149244293	0	1
"40"	4	45	1	-1	-1.21	1	15	-1	1	4.853	2.2411	3.3196	-4.3826	-3.017	-12.1006	4.9537	-3.5972	-5.7016	6.3634	1.8833	-9.9029	1.592	0.2558	-0.6301	-7.5038	0.855	2.7618	5.0756	-1.1893	-3.9983	0.333	0.333	0.333	0.333	0.333	0.333	0.333	0.333	0.333	0.333	0.333	0.333	0.333	0.333	0.333	0.333	0.333	0.333	0.333	6.327	1.6558	6.5206	4	40	1.57959707042308	0	1
"41"	4	30	1	-2	-2.42	1	9	-1	1	2.712	0.1729	-4.5847	-11.266	3.2892	5.697	1.7607	-7.9355	-3.8908	-7.5047	0.8713	2.9905	-4.4125	-8.2851	-4.0011	-5.4106	-10.9965	3.2655	-2.1722	0.9785	2.1283	0.333	0.333	0.333	0.333	0.333	0.333	0.333	0.333	0.333	0.333	0.333	0.333	0.333	0.333	0.333	0.333	0.333	0.333	0.333	6.327	1.555	4.2794	4	41	0.997686370078149	0	1
"42"	4	37	1	-2	-2.42	0	12	1	0	3.647	-3.959	0.0874	-2.7319	0.956	-7.1519	-5.5171	-2.4335	-3.5746	4.5804	-0.7279	-13.4323	1.4003	-13.165	0.3263	-6.589	2.8543	5.2747	-4.1311	-0.764	0.8477	0.2521	0.2949	0.2238	0.3902	0.478	0.3266	0.2481	0.4536	0.2696	0.2177	0.4822	0.2924	0.335	0.2299	0.492	0.2636	0.4242	0.3642	0.2978	6.336	1.667	5.3144	4	42	1.29390491182654	1	0
"43"	4	41	1	2	2.42	0	7	1	1	2.109	-1.8918	11.9894	0.7185	0.1849	2.7136	8.946	-1.8559	13.2578	-1.9406	3.6242	4.1428	1.8157	2.6777	7.7972	0.7136	5.7067	-6.0108	0.1279	0.1629	-2.5086	0.2103	0.5092	0.3813	0.466	0.2258	0.2894	0.2468	0.2033	0.3421	0.4334	0.4747	0.231	0.2678	0.2189	0.5298	0.4101	0.3155	0.2714	0.298	6.325	1.6297	3.7429	4	43	0.746213901496638	1	0
"44"	4	16	1	-2	-2.42	1	6	-1	1	1.934	0.0454	-11.4505	-4.4505	-0.7372	-1.1942	4.2981	-2.4222	3.5327	-4.0858	-9.5715	1.5683	-2.0343	0.8112	-1.1506	1.9552	2.4191	-2.8652	0.6553	-13.2939	-9.4029	0.333	0.333	0.333	0.333	0.333	0.333	0.333	0.333	0.333	0.333	0.333	0.333	0.333	0.333	0.333	0.333	0.333	0.333	0.333	6.327	1.4114	3.3508	4	44	0.659590397031103	0	1
"45"	4	57	1	-4	-4.84	1	6	-1	1	1.802	-2.3947	-2.6011	-6.8671	-8.6014	-8.1155	-5.1132	-2.9744	-12.8558	-5.2021	-7.2323	0.8965	-1.874	-13.8194	1.602	1.0185	-2.6101	-3.6153	2.9615	-13.7783	-4.1007	0.333	0.333	0.333	0.333	0.333	0.333	0.333	0.333	0.333	0.333	0.333	0.333	0.333	0.333	0.333	0.333	0.333	0.333	0.333	6.327	1.6224	3.4194	4	45	0.588897159186146	0	1
"46"	4	62	1	2	2.42	1	5	1	1	1.42	5.2071	5.0992	10.0507	1.9954	5.6466	8.6405	8.1548	0.9703	7.5977	-0.8944	-2.0562	-0.2578	-0.5022	-8.1296	6.0136	-1.8092	-2.4973	8.5697	1.0812	-3.8748	0.333	0.333	0.333	0.333	0.333	0.333	0.333	0.333	0.333	0.333	0.333	0.333	0.333	0.333	0.333	0.333	0.333	0.333	0.333	6.327	1.503	2.9375	4	46	0.350656871613169	1	0
"47"	4	24	1	-1	-1.21	0	6	-1	1	2.126	-0.9324	-5.1252	5.4383	-0.2291	-3.7074	-5.3533	2.3478	9.6504	-1.4061	-6.5585	-3.5582	-3.6609	1.8316	-0.0578	-4.7844	-2.4265	0.2302	-4.8983	9.5995	-9.2421	0.2327	0.4321	0.3834	0.322	0.4504	0.3478	0.2795	0.3449	0.4825	0.2813	0.2103	0.3397	0.2301	0.2933	0.4591	0.2359	0.273	0.4341	0.2921	6.3242	1.5978	3.7436	4	47	0.754242279919756	0	1
"48"	4	69	1	2	2.42	0	6	1	1	1.509	3.2091	8.5817	-1.8515	1.094	-0.74	4.0091	1.731	14.0677	-2.4005	-5.3228	1.4751	6.8906	-5.3194	3.4375	1.5389	-2.123	2.1545	5.9425	11.6344	1.7529	0.2164	0.4636	0.2001	0.3321	0.2362	0.3999	0.487	0.2394	0.2113	0.353	0.2507	0.5133	0.4111	0.2129	0.3647	0.4838	0.2206	0.4882	0.2418	6.3261	1.4225	2.9426	4	48	0.411447179785712	1	0
"49"	4	55	1	2	2.42	0	7	1	1	2.165	6.272	-0.1731	-6.6431	10.6419	6.0095	-5.6088	1.8755	2.0409	9.2262	5.2518	0.2329	-1.2602	-1.9864	-0.6274	-2.3378	7.3503	2.4725	3.5682	2.951	10.7279	0.4348	0.2915	0.4965	0.1999	0.3539	0.2305	0.3453	0.384	0.2968	0.476	0.2098	0.2522	0.4482	0.3239	0.4964	0.2554	0.3369	0.2821	0.2069	6.3209	1.6393	3.8153	4	49	0.772420361454453	1	0
"50"	4	12	1	1	1.21	0	11	1	1	3.468	1.1611	-7.6184	7.9727	-10.2733	1.7517	1.3562	6.9269	0.4468	3.4105	7.216	0.1743	4.8136	5.5026	1.6954	6.2764	3.962	-1.8563	0.465	-5.5701	-2.1922	0.3429	0.2614	0.4867	0.2944	0.2343	0.4398	0.2459	0.4099	0.2882	0.2548	0.4794	0.4359	0.3823	0.2154	0.4021	0.2076	0.3101	0.2536	0.3923	6.3369	1.4838	4.9689	4	50	1.2435780589183	1	0
"51"	4	68	1	1	1.21	0	5	1	1	1.39	2.8412	1.5974	13.8131	1.333	4.1122	-1.4842	-1.7215	4.8744	-3.1356	-2.4968	10.5011	4.5966	-1.7694	-4.9151	1.3357	-7.4364	-1.5087	2.9283	1.2869	-1.5829	0.3291	0.4057	0.2884	0.2417	0.495	0.2084	0.4112	0.2767	0.3369	0.4961	0.2105	0.5	0.2256	0.4559	0.2353	0.2661	0.3506	0.3834	0.2057	6.3225	1.7319	3.124	4	51	0.3293037471426	1	0
"52"	4	11	1	0	0	0	3	-1	0	1.175	-2.4149	-5.3181	1.2692	-4.1079	11.7335	-2.9411	-3.2574	-2.0942	-9.1123	5.7258	2.5637	-3.4475	4.2115	-3.9929	0.5542	0.3564	4.8258	-3.2277	0.6405	8.6243	0.3257	0.4516	0.5191	0.2805	0.4664	0.245	0.3551	0.2486	0.2031	0.2889	0.2279	0.4185	0.2862	0.5069	0.3715	0.2135	0.3006	0.2097	0.3997	6.3186	1.6732	2.8586	4	52	0.161268147596122	0	1
"53"	4	5	1	1	1.21	1	7	1	1	2.151	2.6005	-0.7279	9.7015	-5.5962	-4.6957	4.113	-3.2635	10.3967	3.3317	6.0987	7.2829	3.1527	-6.527	-0.6034	-0.5695	5.1506	-1.5742	-3.7973	0.9825	-2.9145	0.333	0.333	0.333	0.333	0.333	0.333	0.333	0.333	0.333	0.333	0.333	0.333	0.333	0.333	0.333	0.333	0.333	0.333	0.333	6.327	1.5014	3.6516	4	53	0.765932850285593	1	0
"54"	4	51	1	-2	-2.42	0	6	-1	1	2.029	-0.8159	-5.7062	-2.5975	3.8712	-5.32	-4.1246	-1.8131	3.3979	-1.8515	0.2452	-5.2623	0.5917	-12.1473	-10.7046	2.9129	0.4674	-9.1877	7.7214	-6.4257	-1.868	0.4992	0.4171	0.2167	0.3566	0.323	0.2509	0.397	0.2543	0.313	0.3484	0.2327	0.3435	0.5106	0.2539	0.2094	0.3521	0.2637	0.4275	0.3533	6.323	1.6572	3.6962	4	54	0.707543060843678	0	1
"55"	4	25	1	0	0	0	8	-1	1	2.583	2.5602	-5.7178	0.2476	1.0746	2.318	-0.1312	-6.3652	-4.8097	3.4487	8.6326	-4.8354	0.9058	6.6887	-3.3896	-0.2957	8.6293	-5.737	1.9848	2.1324	-8.5596	0.2278	0.3434	0.4015	0.363	0.333	0.4057	0.2479	0.4949	0.3663	0.2917	0.2294	0.3118	0.3431	0.4499	0.3363	0.239	0.4131	0.2413	0.2876	6.3268	1.4788	4.0666	4	55	0.948951514113703	0	1
"56"	4	21	1	4	4.84	1	5	1	1	1.464	3.8222	16.4584	1.643	9.6174	-1.1766	-0.3093	3.2597	2.4447	10.1737	2.1738	-3.4687	5.726	3.9319	0.7605	6.8261	1.895	7.2515	11.7649	10.2592	5.2108	0.333	0.333	0.333	0.333	0.333	0.333	0.333	0.333	0.333	0.333	0.333	0.333	0.333	0.333	0.333	0.333	0.333	0.333	0.333	6.327	1.7165	3.1812	4	56	0.38117241553912	1	0
"57"	4	17	1	-1	-1.21	1	6	-1	1	1.708	-4.5718	1.049	-2.8081	1.2389	-4.7121	-1.2843	4.5147	-0.0765	-2.5365	-1.6821	-7.7145	1.7906	-2.3587	-1.5824	2.0615	-0.3352	-14.4587	8.7754	5.7201	-3.8421	0.333	0.333	0.333	0.333	0.333	0.333	0.333	0.333	0.333	0.333	0.333	0.333	0.333	0.333	0.333	0.333	0.333	0.333	0.333	6.327	1.6878	3.3919	4	57	0.535323095366378	0	1
"58"	4	28	1	4	4.84	0	7	1	1	1.925	2.1654	5.9097	1.016	0.5971	0.0931	-0.6043	0.9164	11.3054	-3.7444	1.6032	1.6421	12.9026	12.4392	3.8836	7.2861	5.6414	6.1158	11.9204	5.4604	11.9141	0.3451	0.3183	0.2517	0.3396	0.2511	0.2122	0.3424	0.3763	0.4163	0.2867	0.3383	0.3789	0.2378	0.2832	0.4877	0.3158	0.4821	0.2365	0.4348	6.335	1.6876	3.6095	4	58	0.654925967739748	1	0
"59"	4	32	1	0	0	1	8	-1	1	2.542	-2.8076	5.3181	3.1307	-5.2403	0.7724	-5.8946	-3.1879	2.9367	-0.3342	1.7831	0.862	8.1835	7.4425	-1.6901	0.3094	5.7549	-8.9645	4.3622	-3.8337	-7.4194	0.333	0.333	0.333	0.333	0.333	0.333	0.333	0.333	0.333	0.333	0.333	0.333	0.333	0.333	0.333	0.333	0.333	0.333	0.333	6.327	1.5108	4.0758	4	59	0.932951172767262	0	1
"60"	4	8	1	-4	-4.84	0	8	-1	1	2.481	-3.2102	-9.6069	-7.1314	0.5001	2.118	3.1013	-4.5591	-6.8822	-11.6663	-7.8819	1.5581	-4.9882	-7.3117	1.8855	-2.0574	-15.8583	-8.8711	-1.4198	-7.9829	-6.3674	0.437	0.5176	0.3064	0.2155	0.2444	0.4712	0.2377	0.4647	0.3787	0.2422	0.4208	0.3287	0.2714	0.2189	0.3988	0.281	0.2252	0.3796	0.2963	6.3361	1.6213	4.1151	4	60	0.908661704709664	0	1
"61"	4	66	1	-1	-1.21	0	7	-1	1	2.647	0.2995	-8.2594	7.1732	1.6799	-5.9233	-3.8888	7.2334	-3.4849	-10.8356	1.1484	-4.7115	-0.232	2.667	-3.1317	-4.674	-1.7523	6.658	-3.6572	2.9423	-3.1909	0.487	0.3436	0.4635	0.4292	0.2897	0.3431	0.2965	0.3744	0.4438	0.3482	0.2396	0.2928	0.2332	0.2035	0.461	0.2904	0.2617	0.2909	0.233	6.3249	1.479	4.1473	4	61	0.973426923244964	0	1
"62"	4	44	1	-2	-2.42	1	7	-1	1	2.305	-6.6043	-0.2045	0.2752	5.2172	-2.7322	-8.8419	2.8978	-1.653	-3.8512	-8.9587	1.685	-4.1282	-1.4369	-3.0792	4.3703	1.3264	-7.4011	4.2217	-11.8338	-9.4116	0.333	0.333	0.333	0.333	0.333	0.333	0.333	0.333	0.333	0.333	0.333	0.333	0.333	0.333	0.333	0.333	0.333	0.333	0.333	6.327	1.7138	4.0225	4	62	0.835080676448612	0	1
"63"	4	10	1	-1	-1.21	0	5	-1	1	1.67	-1.2531	-6.6389	6.3691	-2.8977	-5.2335	-5.4588	2.0103	-2.1759	6.1041	4.3136	-2.0915	-2.7246	-3.4854	1.3769	-4.7387	10.1621	-5.0909	-3.7948	-8.6954	1.0323	0.2125	0.4	0.2981	0.2431	0.5304	0.2554	0.3788	0.2576	0.381	0.259	0.3711	0.3102	0.2475	0.3626	0.2395	0.3776	0.4081	0.3438	0.4461	6.3222	1.4044	3.0876	4	63	0.512823626428664	0	1
"64"	4	48	1	2	2.42	1	6	1	1	1.979	4.0209	-0.2226	6.024	6.3065	4.8879	9.2589	-4.6665	2.7999	7.4241	2.1302	0.1578	-0.0236	4.0282	5.6023	5.2985	-6.9245	11.1798	-0.3279	-6.0285	-4.2617	0.333	0.333	0.333	0.333	0.333	0.333	0.333	0.333	0.333	0.333	0.333	0.333	0.333	0.333	0.333	0.333	0.333	0.333	0.333	6.327	1.4737	3.4633	4	64	0.682591666620429	1	0
"65"	4	53	1	0	0	0	16	1	0	4.728	-3.1198	1.9756	0.8616	0.8094	-6.0506	-0.8153	5.0606	6.0365	-7.8003	2.7534	-4.8452	9.7983	-0.9602	-3.0132	-4.317	6.5087	-3.2537	-7.1118	1.1472	5.4046	0.3363	0.2286	0.2611	0.2151	0.3611	0.2956	0.3275	0.3973	0.237	0.2857	0.4214	0.3704	0.3339	0.2771	0.372	0.4873	0.2787	0.5105	0.3282	6.3247	1.4369	6.1789	4	65	1.5535022801038	1	0
"66"	4	42	1	4	4.84	0	7	1	1	2.003	8.251	7.78	0.1958	-0.4034	2.0185	10.333	0.3614	12.7227	1.6197	5.8645	10.3623	-2.613	4.9973	8.0276	-0.9855	14.5725	8.9869	5.8915	-1.4536	2.0397	0.3773	0.2199	0.4461	0.2865	0.321	0.283	0.4014	0.2075	0.285	0.3509	0.2492	0.4739	0.28	0.3746	0.2649	0.3691	0.2982	0.5308	0.3122	6.3315	1.7179	3.7208	4	66	0.694646056683681	1	0
"67"	4	2	1	-2	-2.42	1	7	-1	1	2.147	-2.3875	-4.8155	-4.1561	7.6183	-6.4256	-13.8675	3.862	-5.7063	2.5882	-3.2385	-1.8035	-2.6216	0.9126	2.7276	0.0454	0.9384	-2.2287	-10.419	-6.2042	-3.5766	0.333	0.333	0.333	0.333	0.333	0.333	0.333	0.333	0.333	0.333	0.333	0.333	0.333	0.333	0.333	0.333	0.333	0.333	0.333	6.327	1.4311	3.5812	4	67	0.764071518896644	0	1
"68"	4	65	1	-2	-2.42	0	8	-1	1	2.293	-2.8721	-2.4627	-7.0586	2.2608	-1.1703	-2.674	0.1791	3.0556	-10.2349	5.9762	-10.4045	-11.1309	-4.8976	4.4576	1.865	-1.1066	2.4835	-6.2034	-5.7599	-4.0735	0.2216	0.3602	0.4363	0.2435	0.3129	0.2544	0.4096	0.2343	0.4069	0.2176	0.5041	0.3969	0.4435	0.2582	0.4785	0.2158	0.2993	0.2279	0.4033	6.3248	1.5328	3.8273	4	68	0.829861003875767	0	1
"69"	4	19	1	1	1.21	1	8	-1	0	2.605	3.5413	-5.3418	-0.7763	1.8448	-0.3686	1.6966	-2.7478	-3.3711	7.0184	2.6063	11.0995	12.2467	-4.4077	-4.0989	1.826	0.7124	-4.6184	4.8137	0.6298	-0.093	0.333	0.333	0.333	0.333	0.333	0.333	0.333	0.333	0.333	0.333	0.333	0.333	0.333	0.333	0.333	0.333	0.333	0.333	0.333	6.327	1.7051	4.3054	4	69	0.95743267520533	0	1
"70"	4	49	1	4	4.84	1	6	1	1	1.918	9.4061	-1.8354	9.8329	1.9176	11.3849	3.8015	4.537	4.1695	13.0245	-2.3051	-0.3816	1.4751	8.3859	-1.0105	6.1399	0.1831	6.715	3.2066	2.5497	15.4046	0.333	0.333	0.333	0.333	0.333	0.333	0.333	0.333	0.333	0.333	0.333	0.333	0.333	0.333	0.333	0.333	0.333	0.333	0.333	6.327	1.4534	3.3683	4	70	0.651282976461246	1	0
"71"	4	49	2	4	4.84	1	5	1	1	1.405	5.4224	0.175	9.0285	10.1142	1.7284	12.8504	4.3508	-2.1918	6.8885	5.2776	7.4961	3.5837	7.138	9.6541	-5.1879	5.2264	12.7643	1.5237	-0.9312	0.7742	0.333	0.333	0.333	0.333	0.333	0.333	0.333	0.333	0.333	0.333	0.333	0.333	0.333	0.333	0.333	0.333	0.333	0.333	0.333	6.327	1.5205	2.9389	4	71	0.340037302785709	1	0
"72"	4	5	2	1	1.21	1	6	1	1	1.68	3.6159	-0.4887	6.4287	-6.4224	5.6056	9.8859	0.5226	-2.4943	1.8621	0.577	-0.2809	-8.441	-2.9233	-1.2358	1.7465	4.8952	8.9636	-4.8355	1.2177	6.2436	0.333	0.333	0.333	0.333	0.333	0.333	0.333	0.333	0.333	0.333	0.333	0.333	0.333	0.333	0.333	0.333	0.333	0.333	0.333	6.327	1.459	3.1472	4	72	0.518793793415168	1	0
"73"	4	63	2	4	4.84	1	5	1	1	1.55	9.0561	3.6547	13.3271	1.3648	10.1646	0.0972	9.6221	8.4501	6.0289	1.5449	9.2741	1.8577	9.0204	5.4871	-0.1305	-3.4086	-4.1724	7.5947	8.0782	0.5395	0.333	0.333	0.333	0.333	0.333	0.333	0.333	0.333	0.333	0.333	0.333	0.333	0.333	0.333	0.333	0.333	0.333	0.333	0.333	6.327	1.4189	2.9842	4	73	0.438254930931155	1	0
"74"	4	65	2	-2	-2.42	0	5	-1	1	1.42	-6.5616	-7.2303	-8.2216	-5.1753	0.4859	-4.1253	-4.6624	1.7218	-7.7577	-1.1793	-3.4589	6.1097	-5.1274	0.5421	8.0037	-4.9864	-7.2154	-7.9642	4.523	3.7699	0.408	0.26	0.3845	0.3126	0.4193	0.253	0.3175	0.2085	0.47	0.2707	0.4374	0.2034	0.3429	0.2504	0.4263	0.2795	0.4699	0.2581	0.3523	6.3243	1.4951	2.9206	4	74	0.350656871613169	0	1
"75"	4	10	2	-1	-1.21	0	6	1	0	1.939	-2.6897	2.4391	-4.464	2.0859	6.3349	-1.454	-2.3191	1.0944	0.8064	-0.4	0.7633	-9.4881	7.3218	-1.3892	-8.8225	-6.4399	-0.9198	-10.8687	4.1908	-1.6211	0.2341	0.3601	0.2727	0.3028	0.3686	0.4895	0.3578	0.2815	0.2278	0.2914	0.4121	0.4825	0.3677	0.3095	0.2746	0.5046	0.2611	0.2213	0.3032	6.3228	1.5334	3.473	4	75	0.662172376260515	1	0
"76"	4	58	2	-2	-2.42	1	6	-1	1	1.799	-5.5539	-2.6533	-5.4702	-5.1152	-5.9506	-1.2773	-7.7873	-1.7092	-5.4207	1.831	-0.1143	-7.2308	5.2036	2.297	0.9228	12.4688	-5.7521	-6.4649	-6.8359	-4.0745	0.333	0.333	0.333	0.333	0.333	0.333	0.333	0.333	0.333	0.333	0.333	0.333	0.333	0.333	0.333	0.333	0.333	0.333	0.333	6.327	1.6871	3.4834	4	76	0.587230954968396	0	1
"77"	4	39	2	0	0	0	14	1	1	4.492	3.698	-3.9377	-7.3603	-2.1703	9.4901	-5.9032	-4.7231	-0.9617	1.2275	-1.6071	-3.4565	1.1853	7.9238	-3.5462	-0.0467	0.4062	9.3465	7.394	-1.8494	-4.1059	0.5076	0.3677	0.2658	0.4098	0.3159	0.2552	0.2144	0.2944	0.3743	0.2462	0.3344	0.3035	0.5113	0.2699	0.3963	0.3259	0.4447	0.2304	0.2666	6.334	1.6707	6.1593	4	77	1.5022980368762	1	0
"78"	4	31	2	-1	-1.21	1	5	1	0	1.57	-2.5987	8.0049	-0.6449	1.7307	-5.6446	-4.2667	-14.1005	-0.9283	-5.3494	1.8297	-3.1166	-1.8354	5.1902	-3.4125	-0.1502	-5.0637	8.0762	1.4444	-4.0221	1.8099	0.333	0.333	0.333	0.333	0.333	0.333	0.333	0.333	0.333	0.333	0.333	0.333	0.333	0.333	0.333	0.333	0.333	0.333	0.333	6.327	1.548	3.1372	4	78	0.451075619360217	1	0
"79"	4	1	2	-4	-4.84	1	9	-1	1	2.809	-6.3116	-7.3146	-4.3288	6.5631	3.6609	-0.0874	-5.8385	-10.075	-0.4949	-2.6672	-6.8609	-9.7987	-9.714	-11.8623	-4.2882	-8.2431	-0.3189	-10.6277	-1.3973	-6.4027	0.333	0.333	0.333	0.333	0.333	0.333	0.333	0.333	0.333	0.333	0.333	0.333	0.333	0.333	0.333	0.333	0.333	0.333	0.333	6.327	1.5496	4.3763	4	79	1.03282854812211	0	1
"80"	4	2	2	-2	-2.42	1	7	-1	1	2.304	-6.176	-1.0987	-1.9713	1.4368	-1.9425	-4.4186	-5.2937	1.7013	-2.2085	-5.1908	-4.178	3.4094	2.6237	-2.2259	-5.3168	-9.6681	-7.7884	-8.2436	12.1521	-5.4323	0.333	0.333	0.333	0.333	0.333	0.333	0.333	0.333	0.333	0.333	0.333	0.333	0.333	0.333	0.333	0.333	0.333	0.333	0.333	6.327	1.4269	3.7377	4	80	0.834646742833645	0	1
"81"	4	22	2	-4	-4.84	0	8	-1	1	2.315	-4.3468	-3.4375	-3.5797	-0.5348	-11.308	-18.9267	-0.9338	-8.4106	-7.5536	-2.5696	-3.599	-0.4237	-1.3733	3.9503	-6.1589	0.5838	-4.9624	-8.2309	-7.1567	-9.5105	0.4431	0.2373	0.4624	0.2207	0.2527	0.4192	0.2255	0.362	0.2283	0.5022	0.4659	0.3111	0.3972	0.3338	0.2097	0.2401	0.3174	0.2325	0.4729	6.3342	1.6917	4.016	4	81	0.839409687538197	0	1
"82"	4	27	2	2	2.42	0	6	1	1	1.733	0.7789	8.9473	6.3843	-4.9349	7.4481	3.7652	1.3984	14.4558	-3.8098	0.1934	5.2253	-2.6076	5.594	3.0293	-1.3554	-2.1151	-0.5272	6.1722	-2.9658	4.9951	0.3336	0.3872	0.4445	0.3433	0.2038	0.4421	0.243	0.4151	0.357	0.2116	0.4982	0.3354	0.2794	0.2169	0.4091	0.2781	0.3705	0.3171	0.2337	6.3196	1.4276	3.1668	4	82	0.549854010733469	1	0
"83"	4	20	2	2	2.42	1	8	1	1	2.518	7.2457	-1.136	-1.3839	-1.5717	-0.7332	4.1338	7.7304	8.9457	0.6751	-1.0792	6.9614	5.4281	5.4738	8.1011	-3.7049	4.6891	-0.0257	10.399	-9.1023	-0.6613	0.333	0.333	0.333	0.333	0.333	0.333	0.333	0.333	0.333	0.333	0.333	0.333	0.333	0.333	0.333	0.333	0.333	0.333	0.333	6.327	1.685	4.2185	4	83	0.923464935622155	1	0
"84"	4	60	2	0	0	1	15	1	1	4.994	0.2184	-1.3514	1.9045	-5.4582	1.8951	8.1645	-1.2514	0.7441	3.6317	-11.9547	-1.7962	-1.1891	-5.5298	2.194	-5.1152	3.8233	6.274	-2.3924	9.0095	-1.2146	0.333	0.333	0.333	0.333	0.333	0.333	0.333	0.333	0.333	0.333	0.333	0.333	0.333	0.333	0.333	0.333	0.333	0.333	0.333	6.327	1.5633	6.5616	4	84	1.60823719185758	1	0
"85"	4	50	2	-4	-4.84	0	7	-1	1	2.011	-8.9589	-2.8463	-8.6563	-0.1739	-5.2946	-18.4886	1.8194	0.0745	-2.9894	0.2144	-7.7429	-1.5054	-7.1842	-0.9501	-8.9994	-9.5167	-4.2296	0.3236	-1.3575	-10.1133	0.3495	0.2842	0.4546	0.2859	0.3146	0.2344	0.3847	0.3086	0.2038	0.3683	0.2449	0.4426	0.2552	0.5222	0.4791	0.2081	0.3507	0.2414	0.3907	6.3235	1.44	3.4622	4	85	0.698632110790515	0	1
"86"	4	38	2	-1	-1.21	0	7	-1	1	2.094	-1.8445	-1.3108	1.5146	-2.0538	-1.6212	-9.691	5.832	-5.0339	1.0994	-2.3881	0.7509	-1.1469	-2.2966	-2.4057	11.8113	-7.8962	-2.3173	-7.095	5.8494	-4.0331	0.4281	0.475	0.303	0.2117	0.3142	0.2175	0.3898	0.3211	0.2411	0.4033	0.2483	0.3534	0.2017	0.3218	0.4875	0.2515	0.2837	0.3946	0.4889	6.3363	1.6541	3.7618	4	86	0.739076112448345	0	1
"87"	4	23	2	-2	-2.42	0	9	-1	1	2.736	-2.0004	-5.2233	-4.3245	0.0674	1.0032	2.0497	-3.7523	-9.7888	-4.2809	8.0666	2.8425	-6.1042	2.9119	2.4168	-0.723	-2.8347	-1.3638	-8.1999	-9.0301	-11.1264	0.2699	0.2037	0.3578	0.2338	0.4955	0.4352	0.3152	0.2162	0.4613	0.3196	0.2846	0.4345	0.2568	0.3483	0.2486	0.4171	0.3275	0.3806	0.3156	6.3217	1.6931	4.4368	4	87	1.0064969997603	0	1
"88"	4	48	2	2	2.42	1	8	1	1	2.386	0.7815	1.9755	8.4419	9.2573	-7.7644	1.5626	2.0233	5.1955	1.1049	1.8088	-1.1549	2.8779	-3.4266	3.6881	3.9577	5.7978	2.9375	-5.8757	0.8863	14.4378	0.333	0.333	0.333	0.333	0.333	0.333	0.333	0.333	0.333	0.333	0.333	0.333	0.333	0.333	0.333	0.333	0.333	0.333	0.333	6.327	1.5766	3.9697	4	88	0.869618323675724	1	0
"89"	4	45	2	-1	-1.21	1	7	1	0	2.2	3.1047	-3.4153	1.4904	9.3403	5.7858	-10.5642	-7.9092	-6.6456	-1.4396	-5.3008	3.8289	1.408	-2.9023	-2.2451	-5.7979	1.9457	2.1982	-3.1062	1.8178	-6.5499	0.333	0.333	0.333	0.333	0.333	0.333	0.333	0.333	0.333	0.333	0.333	0.333	0.333	0.333	0.333	0.333	0.333	0.333	0.333	6.327	1.493	3.7008	4	89	0.78845736036427	1	0
"90"	4	52	2	-1	-1.21	0	12	1	0	3.639	-4.0469	-0.1123	-10.078	5.1321	-10.9379	0.5076	3.9131	-4.4404	4.679	0.5682	-5.6223	0.9468	3.4831	2.8359	-5.5337	-0.4879	1.9157	-0.967	3.6567	-9.5354	0.2778	0.2037	0.2452	0.3625	0.2135	0.2677	0.2019	0.2455	0.3605	0.5031	0.4456	0.3442	0.4333	0.2831	0.3848	0.4179	0.4907	0.3088	0.3441	6.3338	1.7159	5.3729	4	90	1.29170891863002	1	0
"91"	4	69	2	2	2.42	0	8	1	1	2.276	4.0342	-0.2257	-3.8965	3.1563	1.5615	-0.1676	2.7832	5.0462	-3.1484	5.487	-4.0078	2.5622	2.4352	4.266	8.6151	-8.8989	5.7308	7.4075	3.3712	12.7477	0.4056	0.2975	0.2459	0.3359	0.2569	0.3966	0.2759	0.3189	0.2277	0.4662	0.5016	0.2439	0.3076	0.2464	0.3623	0.2286	0.5306	0.2915	0.3913	6.3306	1.7	3.9931	4	91	0.822419516264084	1	0
"92"	4	35	2	4	4.84	1	7	1	1	2.072	2.8261	10.2017	3.4331	2.2351	1.5209	7.3086	7.4164	-2.7072	10.8622	8.5661	3.2547	1.8015	14.3698	9.0797	10.0106	-2.2008	6.1661	2.3396	-4.0534	3.8382	0.333	0.333	0.333	0.333	0.333	0.333	0.333	0.333	0.333	0.333	0.333	0.333	0.333	0.333	0.333	0.333	0.333	0.333	0.333	6.327	1.5381	3.6229	4	92	0.728514324397237	1	0
"93"	4	37	2	-2	-2.42	0	9	-1	1	2.676	-4.8056	-1.8702	4.3265	-1.5881	-5.7964	-3.8863	-1.9101	1.0428	4.2967	4.4308	-7.542	-6.2166	3.7437	-4.1407	-13.2135	-11.4109	1.8868	1.0535	-3.6951	-3.7076	0.2947	0.2175	0.2499	0.4718	0.388	0.3249	0.2224	0.4944	0.3535	0.2115	0.3004	0.3915	0.4602	0.2873	0.2394	0.3078	0.4367	0.2272	0.4486	6.3277	1.6378	4.3264	4	93	0.984323142265982	0	1
"94"	4	33	2	1	1.21	1	8	1	1	2.458	-1.087	7.8125	-5.585	-4.4726	-4.2316	9.9231	-4.7158	8.3437	-2.1261	2.7272	3.6654	6.8927	2.511	-0.6924	-0.6638	-4.009	-4.077	8.2801	0.6191	3.5631	0.333	0.333	0.333	0.333	0.333	0.333	0.333	0.333	0.333	0.333	0.333	0.333	0.333	0.333	0.333	0.333	0.333	0.333	0.333	6.327	1.6548	4.1251	4	94	0.899348011143843	1	0
"95"	4	41	2	2	2.42	0	7	1	1	2.055	-1.8172	4.6711	-5.3591	2.8114	4.2928	-1.8893	6.2688	-2.476	7.7413	6.4591	4.4685	-5.8839	8.8225	8.9791	-1.7347	9.8593	2.3942	1.3113	5.938	-4.752	0.5171	0.2006	0.2711	0.2185	0.4073	0.3417	0.2103	0.3684	0.3268	0.284	0.4618	0.3372	0.2677	0.3123	0.4798	0.2185	0.4484	0.4026	0.2551	6.3292	1.6261	3.6896	4	95	0.720275847948198	1	0
"96"	4	28	2	4	4.84	0	6	1	1	1.891	1.4342	10.2039	6.3413	5.8344	-5.9419	3.367	-0.4635	5.6921	5.9601	7.0331	7.3079	8.3278	2.2475	13.9361	5.7956	-0.7824	9.6279	6.497	8.6303	-4.1602	0.3767	0.2539	0.4335	0.3092	0.2205	0.4327	0.312	0.3983	0.3333	0.2532	0.2071	0.5023	0.2188	0.2773	0.4396	0.3431	0.2222	0.3775	0.4098	6.321	1.4192	3.3252	4	96	0.63710578967632	1	0
"97"	4	42	2	4	4.84	0	5	1	1	1.69	2.9105	7.1892	-2.9053	17.0576	8.1257	-0.5115	6.7032	-3.3191	2.8554	7.6202	13.089	9.6164	7.1147	4.3527	4.963	2.0059	1.2884	5.2038	0.8248	2.4371	0.3212	0.3749	0.2988	0.3345	0.4419	0.2555	0.4609	0.3724	0.4464	0.2983	0.2088	0.2635	0.4237	0.211	0.4692	0.343	0.2538	0.316	0.2362	6.33	1.661	3.357	4	97	0.524728528934982	1	0
"98"	4	4	2	0	0	1	10	1	1	3.245	2.1412	6.5888	-3.7001	5.1799	-2.9594	1.8929	-1.4074	-3.2861	12.9676	5.0143	-0.0091	-2.6984	2.7837	0.9207	-2.6668	1.6567	-6.3971	-4.6166	-7.1883	-6.0952	0.333	0.333	0.333	0.333	0.333	0.333	0.333	0.333	0.333	0.333	0.333	0.333	0.333	0.333	0.333	0.333	0.333	0.333	0.333	6.327	1.7282	4.9791	4	98	1.17711535015605	1	0
"99"	4	7	2	4	4.84	1	8	1	1	2.413	8.8432	4.165	6.0094	2.5933	2.9561	2.8672	4.6974	12.3927	8.021	1.1721	-1.7199	-1.3116	14.9559	3.8086	2.6439	6.3951	10.0104	-3.3247	-0.7826	11.9514	0.333	0.333	0.333	0.333	0.333	0.333	0.333	0.333	0.333	0.333	0.333	0.333	0.333	0.333	0.333	0.333	0.333	0.333	0.333	6.327	1.6506	4.0636	4	99	0.880870786642895	1	0
"100"	4	59	2	-1	-1.21	1	8	1	0	2.642	1.1303	6.0269	1.5915	-1.9829	-1.4	-2.2979	-0.5776	-0.4745	-6.8543	-3.0654	-7.7312	-12.3657	2.6816	4.1508	-8.6865	7.4317	-0.8081	-0.7106	-3.7173	1.6253	0.333	0.333	0.333	0.333	0.333	0.333	0.333	0.333	0.333	0.333	0.333	0.333	0.333	0.333	0.333	0.333	0.333	0.333	0.333	6.327	1.7078	4.3592	4	100	0.971536206100134	1	0
"101"	4	11	2	0	0	0	9	1	1	2.467	-0.0349	2.9964	-10.2357	2.2049	-2.2781	10.0824	1.6102	-0.9894	5.5801	-0.2119	3.4825	5.5571	-3.3027	-1.7536	-0.4118	-9.2526	1.3617	-2.7839	-6.9085	4.0436	0.2757	0.209	0.503	0.2487	0.3154	0.4024	0.3059	0.2051	0.3206	0.4214	0.3855	0.3474	0.4304	0.2151	0.3415	0.4735	0.4002	0.2793	0.2502	6.3304	1.6776	4.1513	4	101	0.90300283754722	1	0
"102"	4	54	2	1	1.21	0	13	1	1	3.975	0.0538	-1.1895	2.0183	9.0251	-3.006	2.7449	0.2969	4.071	4.3151	-3.1388	7.3216	1.9653	-2.2424	8.8862	11.8631	-1.3468	-8.7489	-2.1899	-1.1089	-3.4708	0.2162	0.2545	0.4273	0.4706	0.2358	0.3421	0.2452	0.3896	0.3247	0.2217	0.4626	0.2541	0.2954	0.382	0.333	0.3598	0.3136	0.4371	0.3554	6.3206	1.412	5.4086	4	102	1.3800247481063	1	0
"103"	4	3	2	-1	-1.21	1	7	-1	1	2.294	2.8023	0.2461	-7.6696	-3.4075	1.4118	-3.542	0.0515	-0.1056	-4.3276	2.4098	5.9045	-4.5467	-8.7991	-4.2636	-6.2807	6.1695	7.5042	-8.9514	1.1375	1.9112	0.333	0.333	0.333	0.333	0.333	0.333	0.333	0.333	0.333	0.333	0.333	0.333	0.333	0.333	0.333	0.333	0.333	0.333	0.333	6.327	1.7063	4.0112	4	103	0.830297018707179	0	1
"104"	4	15	2	-4	-4.84	1	5	-1	1	1.562	-3.7122	-0.3948	0.2112	-13.0249	-5.2572	1.519	-5.6418	-1.0514	-5.1098	-10.6967	-8.7995	-10.5606	-6.1404	-3.8521	0.8029	5.6421	-8.2466	-12.1736	-2.9242	-6.1159	0.333	0.333	0.333	0.333	0.333	0.333	0.333	0.333	0.333	0.333	0.333	0.333	0.333	0.333	0.333	0.333	0.333	0.333	0.333	6.327	1.6746	3.2457	4	104	0.445967051417494	0	1
"105"	4	40	2	1	1.21	0	9	1	1	2.797	5.0047	-3.8207	4.8054	-2.2456	3.8677	-5.9838	7.0482	-6.8364	0.2335	4.0102	2.1891	-5.2275	0.9996	5.0352	9.3347	7.8882	-5.8231	-0.8021	-0.7114	3.6059	0.2586	0.4237	0.4616	0.2255	0.2957	0.3581	0.4129	0.2435	0.5173	0.4475	0.2079	0.2496	0.3406	0.2203	0.3578	0.2946	0.35	0.4661	0.2038	6.3352	1.4028	4.2149	4	105	1.02854741421982	1	0
"106"	4	8	2	-4	-4.84	0	8	-1	1	2.191	-7.3185	1.4215	6.4847	-4.4714	-1.7782	-2.4052	-7.3978	-4.8171	-2.8691	-3.6378	-5.5583	-7.0618	-6.9746	-1.8996	-16.1872	-0.6828	-13.8137	-9.1054	-5.3277	-3.2948	0.2232	0.3854	0.3586	0.33	0.2103	0.3027	0.372	0.5247	0.2824	0.45	0.2414	0.2703	0.4237	0.2019	0.2505	0.396	0.2441	0.5264	0.3317	6.3254	1.4683	3.6747	4	106	0.784358060613329	0	1
"107"	4	19	2	1	1.21	1	6	1	1	1.957	3.823	3.6794	-1.1529	8.9516	2.3078	-2.0705	-1.385	7.1645	8.2829	-6.3933	-0.6123	-3.0698	-0.747	-2.3844	6.2428	-4.915	-8.4778	3.7308	4.6185	6.9923	0.333	0.333	0.333	0.333	0.333	0.333	0.333	0.333	0.333	0.333	0.333	0.333	0.333	0.333	0.333	0.333	0.333	0.333	0.333	6.327	1.5959	3.5577	4	107	0.671412688413939	1	0
"108"	4	29	2	-4	-4.84	1	6	-1	1	1.966	-1.9613	-0.6003	3.751	-10.3639	-6.4693	-4.1951	-13.073	-7.3416	-4.211	2.401	-7.9933	-8.2495	-8.2749	5.1812	-2.0634	-3.3641	-9.2459	-9.4662	-2.9675	-10.2216	0.333	0.333	0.333	0.333	0.333	0.333	0.333	0.333	0.333	0.333	0.333	0.333	0.333	0.333	0.333	0.333	0.333	0.333	0.333	6.327	1.7156	3.6837	4	108	0.676001021724975	0	1
"109"	4	9	2	-2	-2.42	0	6	1	0	2.068	-3.581	2.9409	2.0098	-0.8984	2.4477	1.6617	-1.5745	-10.3594	-4.0449	-1.2654	-2.7584	-2.3249	-3.3128	-10.0233	-7.7384	6.767	-6.9551	0.7222	0.0454	-12.1136	0.3408	0.4733	0.2014	0.4374	0.4821	0.4195	0.2207	0.2887	0.5231	0.2688	0.3038	0.2139	0.3826	0.2818	0.2026	0.439	0.3304	0.2024	0.3133	6.3256	1.5502	3.6189	4	109	0.726581956646183	1	0
"110"	4	47	2	1	1.21	1	5	1	1	1.522	4.8684	3.1688	4.2862	8.0995	11.4061	0.6067	-3.6597	-4.931	-2.5889	-2.3699	6.3095	-3.9218	0.5043	-0.4715	-6.6538	4.9144	-4.7695	-0.6173	5.3065	2.9238	0.333	0.333	0.333	0.333	0.333	0.333	0.333	0.333	0.333	0.333	0.333	0.333	0.333	0.333	0.333	0.333	0.333	0.333	0.333	6.327	1.508	3.0394	4	110	0.420025259439494	1	0
"111"	4	12	2	1	1.21	0	13	-1	0	4.09	4.9845	0.259	6.5323	6.072	-1.7629	-3.9093	1.7334	-2.2551	-4.6741	13.0669	2.5348	-5.3936	0.94	-0.6432	7.0524	3.2215	-1.0877	6.7522	-2.7559	-5.039	0.3709	0.3427	0.2892	0.2595	0.2019	0.3459	0.2752	0.4839	0.2038	0.3459	0.4133	0.3364	0.3808	0.2634	0.3328	0.3735	0.2957	0.3724	0.4343	6.3214	1.5244	5.6237	4	111	1.40854497005471	0	1
"112"	4	43	2	-4	-4.84	1	5	-1	1	1.355	-6.0626	-5.1685	-15.467	-11.413	-4.315	2.8438	-7.0071	1.7218	-1.9393	-0.3168	-0.5711	-6.4288	-5.6011	-3.3395	-5.9847	-7.4124	0.0386	1.9904	-10.8878	-12.0837	0.333	0.333	0.333	0.333	0.333	0.333	0.333	0.333	0.333	0.333	0.333	0.333	0.333	0.333	0.333	0.333	0.333	0.333	0.333	6.327	1.4525	2.8054	4	112	0.303801454331664	0	1
"113"	4	36	2	-4	-4.84	0	10	-1	1	3.412	-0.2006	-13.2611	-7.2146	-3.5849	-3.3687	-1.6871	-3.6675	-3.9297	-6.7519	-5.022	-14.0828	-6.1421	-6.6969	-6.365	5.3551	-6.0018	-5.877	-3.4615	-11.639	4.9884	0.2896	0.4696	0.3826	0.3401	0.3889	0.4284	0.388	0.2036	0.3863	0.2344	0.3509	0.2789	0.3993	0.2248	0.3284	0.2182	0.3085	0.4347	0.2664	6.3218	1.5117	4.9296	4	113	1.22729862962943	0	1
"114"	4	67	2	0	0	0	6	1	1	1.789	-0.4644	-5.2097	-1.6045	4.4787	-3.3616	6.7984	11.0061	-9.6504	3.5645	-2.7686	-4.1463	1.3096	0.5219	6.5516	2.0632	-3.3009	0.5618	-4.4395	1.8885	-5.6863	0.3868	0.2286	0.2848	0.423	0.3144	0.4881	0.2974	0.4479	0.2204	0.3114	0.239	0.5117	0.3314	0.4019	0.2426	0.2175	0.4257	0.2895	0.2561	6.3182	1.6283	3.4401	4	114	0.581656804526582	1	0
"115"	4	16	2	-2	-2.42	1	5	-1	1	1.524	-5.5553	-3.5405	-2.8121	-1.6692	6.5025	4.2049	1.8437	-16.1586	0.7636	0.0211	-3.2639	-5.2284	-5.6148	-0.573	-4.1577	-8.9394	-2.457	-5.0874	-0.4004	2.0787	0.333	0.333	0.333	0.333	0.333	0.333	0.333	0.333	0.333	0.333	0.333	0.333	0.333	0.333	0.333	0.333	0.333	0.333	0.333	6.327	1.4941	3.0243	4	115	0.421338457264455	0	1
"116"	4	6	2	2	2.42	1	7	1	1	2.048	2.3238	5.0396	0.8091	-4.743	-2.8705	3.9908	0.6321	4.861	4.0953	2.6473	-5.7658	5.4473	3.2451	5.2925	-5.006	10.2746	3.2719	9.456	-5.256	10.0812	0.333	0.333	0.333	0.333	0.333	0.333	0.333	0.333	0.333	0.333	0.333	0.333	0.333	0.333	0.333	0.333	0.333	0.333	0.333	6.327	1.4016	3.4654	4	116	0.716863707177261	1	0
"117"	4	64	2	-4	-4.84	0	6	-1	1	2.15	-9.4607	-13.228	-8.5847	-7.6672	-9.4675	-0.4064	-3.6621	3.2342	-0.5318	2.5029	-0.2492	-4.0036	-13.6337	-4.4009	-4.8824	-5.1699	-9.3383	2.6295	-8.1079	-3.3896	0.5148	0.4712	0.2149	0.2849	0.254	0.4442	0.2569	0.356	0.3992	0.2364	0.4074	0.2228	0.2667	0.2275	0.3035	0.3593	0.3996	0.2942	0.4194	6.3327	1.6623	3.8174	4	117	0.765467842139571	0	1
"118"	4	18	2	0	0	1	12	-1	0	3.912	-1.3113	-5.22	-6.7633	2.9052	4.5409	-0.6366	0.5075	2.9216	-9.2691	1.0216	-2.019	5.5786	0.3373	2.5205	-10.4573	0.0498	8.5037	-1.111	7.8918	-1.1824	0.333	0.333	0.333	0.333	0.333	0.333	0.333	0.333	0.333	0.333	0.333	0.333	0.333	0.333	0.333	0.333	0.333	0.333	0.333	6.327	1.719	5.6463	4	118	1.36404875217257	0	1
"119"	4	70	2	4	4.84	0	6	1	1	1.826	6.0844	2.5075	11.5418	2.1437	-1.959	5.5309	4.7486	8.2442	-2.7223	6.1848	6.0401	7.7495	1.9282	6.9336	-3.1003	6.058	14.5851	-4.2359	7.157	10.2002	0.3902	0.2799	0.2536	0.3816	0.3069	0.2477	0.4166	0.2564	0.4451	0.2225	0.3724	0.2992	0.3634	0.2051	0.4556	0.2623	0.3815	0.3405	0.439	6.3194	1.5991	3.4264	4	119	0.602127782172777	1	0
"120"	4	51	2	-2	-2.42	0	7	-1	1	2.2	2.4473	-8.0489	-7.9247	5.8384	-5.9299	-1.8293	-5.5446	2.7145	-1.8524	2.372	-8.64	1.2974	-7.6888	6.9941	-2.3305	-3.6469	-10.8048	1.4746	-1.4566	-5.694	0.3877	0.2092	0.4412	0.3651	0.4067	0.2072	0.3974	0.4447	0.3862	0.2492	0.319	0.2152	0.2834	0.4811	0.215	0.4142	0.2871	0.3584	0.2526	6.3205	1.6794	3.8841	4	120	0.78845736036427	0	1
"121"	4	44	2	-2	-2.42	1	7	-1	1	2.215	-0.8968	2.4261	-8.1088	-13.9294	-9.2439	-7.6609	3.6322	5.5591	-2.6145	-7.8015	-1.8625	-2.4124	-4.243	-0.8158	-1.0885	-3.0792	4.7571	-2.6041	-0.099	0.1155	0.333	0.333	0.333	0.333	0.333	0.333	0.333	0.333	0.333	0.333	0.333	0.333	0.333	0.333	0.333	0.333	0.333	0.333	0.333	6.327	1.6119	3.8321	4	121	0.795252403497099	0	1
"122"	4	13	2	2	2.42	0	6	1	1	2.135	3.1496	8.0415	12.2508	-1.3302	4.3568	7.2331	-2.1254	4.4073	3.2232	-4.5372	-2.9369	-0.3626	-3.2912	-2.7066	11.9959	2.733	3.9036	7.7216	-0.2996	-1.6031	0.2732	0.4145	0.3515	0.5126	0.25	0.4086	0.2287	0.2018	0.2799	0.2025	0.404	0.3588	0.4786	0.3296	0.2616	0.3791	0.4213	0.2613	0.3047	6.3223	1.6916	3.8362	4	122	0.758466646680588	1	0
"123"	4	56	2	4	4.84	0	6	1	1	2.01	5.9568	5.2394	1.398	9.7861	-2.2545	7.6791	7.6106	15.1331	12.6129	6.8272	8.2642	3.4127	5.4965	0.2297	-2.4269	-0.3662	2.8254	4.5105	8.09	-3.3092	0.4159	0.2851	0.4747	0.2223	0.3925	0.4418	0.3074	0.514	0.3352	0.2068	0.343	0.247	0.4417	0.3419	0.2817	0.3352	0.2043	0.2996	0.2442	6.3342	1.5245	3.5438	4	123	0.698134722070984	1	0
"124"	4	57	2	-4	-4.84	1	5	-1	1	1.336	-6.4794	-8.782	2.219	-12.1309	-2.941	-5.9176	-10.0689	-1.2271	-1.5754	-3.5829	-3.8515	-9.5793	-2.595	-6.464	-9.5667	-8.8823	-1.7986	8.8663	-9.3192	-4.402	0.333	0.333	0.333	0.333	0.333	0.333	0.333	0.333	0.333	0.333	0.333	0.333	0.333	0.333	0.333	0.333	0.333	0.333	0.333	6.327	1.6525	2.9864	4	124	0.289680075114454	0	1
"125"	4	24	2	-1	-1.21	0	7	-1	1	2.186	-5.8154	-1.1894	-3.4861	-9.4729	-10.8969	1.8818	-3.9126	2.1303	5.1833	-0.7678	-0.3106	7.0235	-8.6422	3.6233	-0.6089	2.7843	2.8451	-2.9142	3.2567	-4.3988	0.3235	0.3974	0.5132	0.2471	0.4607	0.2304	0.3582	0.2495	0.3168	0.2631	0.3007	0.4643	0.2023	0.2483	0.3424	0.5149	0.3954	0.2275	0.2713	6.327	1.5607	3.753	4	125	0.782073389754347	0	1
"126"	4	32	2	0	0	1	5	-1	0	1.366	2.2705	-6.5799	-5.2076	-4.1409	0.9433	3.1018	-0.0083	-1.3885	11.9854	3.6685	3.6847	-4.4014	3.5009	-2.1202	-1.139	-5.1212	2.4577	-0.034	-9.1963	6.1168	0.333	0.333	0.333	0.333	0.333	0.333	0.333	0.333	0.333	0.333	0.333	0.333	0.333	0.333	0.333	0.333	0.333	0.333	0.333	6.327	1.4802	2.8663	4	126	0.311886761148598	0	1
"127"	4	34	2	2	2.42	1	11	1	1	3.382	2.8656	-2.4303	8.9437	1.296	3.0293	-3.2708	-6.5782	3.6176	3.9945	6.4188	-6.6175	4.5719	4.9943	7.2862	9.8614	1.6131	-5.4165	1.0621	8.2159	5.1422	0.333	0.333	0.333	0.333	0.333	0.333	0.333	0.333	0.333	0.333	0.333	0.333	0.333	0.333	0.333	0.333	0.333	0.333	0.333	6.327	1.6499	5.0496	4	127	1.21846725047639	1	0
"128"	4	46	2	0	0	1	8	1	0	2.529	-1.2302	9.9871	-3.301	2.0081	8.795	-0.0869	-1.174	6.7776	6.1433	-6.5531	-3.6864	-3.2627	-1.677	-4.8697	-6.8679	-1.1853	-3.45	-0.1113	-2.2748	5.3087	0.333	0.333	0.333	0.333	0.333	0.333	0.333	0.333	0.333	0.333	0.333	0.333	0.333	0.333	0.333	0.333	0.333	0.333	0.333	6.327	1.6241	4.1632	4	128	0.927823967687828	1	0
"129"	4	55	2	2	2.42	0	7	1	1	1.939	4.023	-6.4569	-3.122	3.5882	5.847	6.1006	9.0826	7.5021	4.0464	-3.3696	8.6095	6.3285	9.052	0.1467	1.9965	-5.1307	0.4671	3.8786	-3.7074	-0.407	0.3438	0.2903	0.2017	0.2812	0.2036	0.4613	0.2338	0.5016	0.3388	0.3084	0.4509	0.2994	0.3296	0.2211	0.4543	0.3991	0.3463	0.2858	0.3831	6.334	1.5339	3.4901	4	129	0.662172376260515	1	0
"130"	4	30	2	-2	-2.42	1	10	-1	1	3.11	-5.9667	-1.8205	-5.2542	-11.4561	3.3634	4.0723	-1.2749	-5.7945	-3.269	-6.337	1.0204	2.1664	-0.9784	-8.8088	7.0319	4.523	-4.4749	-5.9454	-0.2494	-8.1703	0.333	0.333	0.333	0.333	0.333	0.333	0.333	0.333	0.333	0.333	0.333	0.333	0.333	0.333	0.333	0.333	0.333	0.333	0.333	6.327	1.4557	4.5779	4	130	1.13462272619114	0	1
"131"	4	61	2	1	1.21	1	9	1	1	2.686	3.8116	-3.1247	-0.2958	6.2117	-6.4958	-2.1632	8.1096	4.592	1.4798	13.885	-2.6366	0.2876	-4.1799	0.3457	1.7768	-4.9936	1.4459	3.3121	-3.3493	5.5523	0.333	0.333	0.333	0.333	0.333	0.333	0.333	0.333	0.333	0.333	0.333	0.333	0.333	0.333	0.333	0.333	0.333	0.333	0.333	6.327	1.5338	4.2372	4	131	0.988053098101046	1	0
"132"	4	14	2	4	4.84	0	7	1	1	2.123	0.0865	2.8361	3.0431	2.7183	7.4254	10.0631	7.4786	3.4045	-0.2394	8.9805	6.0735	-3.2597	8.5235	2.0055	4.5908	12.6813	6.4504	-5.5187	13.7378	3.7526	0.3148	0.2584	0.2855	0.367	0.2398	0.3408	0.4028	0.2073	0.2374	0.4305	0.5208	0.409	0.351	0.2611	0.5065	0.229	0.406	0.3377	0.218	6.3234	1.7033	3.8402	4	132	0.752830182721119	1	0
"133"	4	21	2	4	4.84	1	7	1	1	2.13	0.4005	5.9173	-4.6382	14.7148	3.2982	7.0959	-0.652	10.6026	1.2907	8.5374	13.2461	2.7988	1.0616	6.2071	5.0718	7.9795	-2.4244	5.6011	1.7431	8.3962	0.333	0.333	0.333	0.333	0.333	0.333	0.333	0.333	0.333	0.333	0.333	0.333	0.333	0.333	0.333	0.333	0.333	0.333	0.333	6.327	1.5958	3.7307	4	133	0.756121979721334	1	0
"134"	4	68	2	1	1.21	0	9	-1	0	2.58	1.3104	-2.2628	-1.46	-4.3387	-4.5412	2.2087	0.165	-9.035	7.7457	-5.332	2.0042	5.8427	5.1602	-3.6392	1.2961	2.9588	2.4437	6.3038	7.9921	9.3968	0.4094	0.2998	0.2516	0.3327	0.2607	0.3765	0.2855	0.2473	0.2913	0.4486	0.5023	0.3165	0.2146	0.3465	0.3087	0.5156	0.2348	0.4505	0.2292	6.322	1.639	4.2306	4	134	0.947789398933526	0	1
"135"	4	25	2	0	0	0	10	1	0	2.708	1.8456	-5.6554	-4.2502	-3.6323	2.0882	-2.793	1.4704	8.0796	-0.5046	4.8785	5.8904	-0.6703	-7.8698	6.0978	-4.3866	5.7447	-3.7415	-8.0616	4.5184	2.6301	0.2814	0.2405	0.2716	0.2121	0.3134	0.4178	0.3235	0.4077	0.2068	0.3312	0.518	0.4915	0.244	0.4627	0.2305	0.3174	0.4621	0.381	0.2109	6.3241	1.6986	4.4087	4	135	0.996210355050029	1	0
"136"	4	53	2	0	0	0	7	-1	0	2.067	3.2712	-10.0827	-0.2311	-7.0597	3.1164	-1.9873	-2.6391	3.9127	5.5266	1.357	-0.2603	3.971	-4.9818	-2.328	5.7922	0.6099	9.9733	1.4942	0.5256	-8.0875	0.2147	0.3875	0.3006	0.2622	0.3898	0.3314	0.3009	0.4265	0.5146	0.3095	0.3954	0.4829	0.2436	0.274	0.2189	0.2505	0.2874	0.4218	0.3235	6.3358	1.5759	3.651	4	136	0.726098280699631	0	1
"137"	4	17	2	-1	-1.21	1	8	1	0	2.484	-3.0014	0.5311	5.2128	4.931	-5.7983	8.9876	2.1479	-3.7806	-7.8679	-2.7189	-4.043	-3.7283	-2.2751	3.1117	2.3128	2.6924	-1.5932	-11.3703	-6.2396	-1.9234	0.333	0.333	0.333	0.333	0.333	0.333	0.333	0.333	0.333	0.333	0.333	0.333	0.333	0.333	0.333	0.333	0.333	0.333	0.333	6.327	1.6749	4.1681	4	137	0.909870164071232	1	0
"138"	4	66	2	-1	-1.21	0	12	-1	1	4.043	-4.9824	5.2817	4.1279	2.2994	-1.2142	-8.7825	-3.4055	3.2601	-6.136	5.3454	-1.6259	1.1856	-1.9724	-7.9496	3.9679	2.1795	-0.7234	-8.2463	-9.2166	1.8787	0.3372	0.3845	0.2055	0.5288	0.2432	0.3387	0.2996	0.2047	0.2653	0.342	0.4764	0.5036	0.3242	0.3955	0.2739	0.3721	0.3077	0.2753	0.2483	6.3265	1.4064	5.4602	4	138	1.39698699065863	0	1
"139"	4	26	2	1	1.21	0	10	1	1	3.104	5.401	-1.9011	3.2989	3.5405	7.9994	1.8288	-2.8157	8.485	1.5986	5.589	-5.2941	2.4409	4.8911	6.5852	-4.8726	0.1109	-2.9698	-3.839	-9.8466	4.679	0.3658	0.247	0.3896	0.4973	0.3136	0.2796	0.3762	0.3148	0.2141	0.4001	0.2467	0.3584	0.324	0.4613	0.2502	0.2145	0.3398	0.3852	0.3557	6.3341	1.6996	4.8212	4	139	1.13269160232097	1	0
"140"	4	62	2	2	2.42	1	8	1	1	2.648	3.2178	6.4157	11.905	-6.7017	1.6201	3.8204	-0.4697	-1.686	0.5446	9.1407	6.1153	1.6835	1.9055	-0.2398	-1.7685	-1.8243	1.5537	12.8332	3.7486	-3.5145	0.333	0.333	0.333	0.333	0.333	0.333	0.333	0.333	0.333	0.333	0.333	0.333	0.333	0.333	0.333	0.333	0.333	0.333	0.333	6.327	1.4234	4.0819	4	140	0.973804638074762	1	0
"141"	4	33	3	1	1.21	1	9	1	1	2.854	4.9277	-2.8091	2.8314	-9.7619	-3.4906	0.5382	4.9188	5.4111	13.9986	1.8229	0.8034	4.0446	-7.4176	-0.7004	1.8898	0.3766	-0.4178	3.4198	-1.958	4.6882	0.333	0.333	0.333	0.333	0.333	0.333	0.333	0.333	0.333	0.333	0.333	0.333	0.333	0.333	0.333	0.333	0.333	0.333	0.333	6.327	1.4756	4.3381	4	141	1.04872151905464	1	0
"142"	4	13	3	2	2.42	0	10	1	1	3.21	-2.3461	1.0134	-1.0809	5.3306	4.1603	-11.3137	3.6716	0.5607	5.5205	8.1129	4.5886	0.0875	-2.3898	2.3435	6.4248	-1.2869	12.7098	7.9832	4.4383	1.2902	0.261	0.5	0.2178	0.3792	0.4821	0.2359	0.2822	0.3629	0.2456	0.4099	0.2351	0.3586	0.5176	0.272	0.4131	0.3467	0.2799	0.2158	0.3115	6.3268	1.6796	4.8942	4	142	1.16627093714192	1	0
"143"	4	35	3	4	4.84	1	8	1	1	2.347	3.8454	9.2637	6.8655	-7.8841	2.7944	3.8888	7.424	10.1416	-3.5178	0.7847	10.3688	9.7504	7.9097	3.6749	8.2226	6.1337	-1.2098	10.1948	5.8254	0.4132	0.333	0.333	0.333	0.333	0.333	0.333	0.333	0.333	0.333	0.333	0.333	0.333	0.333	0.333	0.333	0.333	0.333	0.333	0.333	6.327	1.4865	3.8308	4	143	0.853137916868886	1	0
"144"	4	47	3	1	1.21	1	9	-1	0	2.797	-2.5747	-9.2166	3.2605	-1.2614	0.1931	5.0025	6.8928	-6.1462	8.3874	-0.2636	-3.2017	1.9338	1.4854	6.972	3.8187	7.7558	-0.8712	-0.6036	8.2895	-4.9917	0.333	0.333	0.333	0.333	0.333	0.333	0.333	0.333	0.333	0.333	0.333	0.333	0.333	0.333	0.333	0.333	0.333	0.333	0.333	6.327	1.5267	4.3308	4	144	1.02854741421982	0	1
"145"	4	22	3	-4	-4.84	0	7	-1	1	2.072	-4.0196	0.8442	-5.7634	-5.944	-4.3579	-10.0683	-6.0425	-6.7894	0.0594	3.2951	-13.9818	1.3635	-6.3648	-7.9781	-6.5231	3.0311	0.4546	-8.9774	-12.5231	-5.1335	0.2453	0.4313	0.23	0.4259	0.3914	0.2104	0.2866	0.4597	0.2577	0.3454	0.2401	0.4535	0.278	0.4445	0.2367	0.5082	0.322	0.2937	0.2583	6.3188	1.5605	3.6564	4	145	0.728514324397237	0	1
"146"	4	52	3	-1	-1.21	0	9	-1	1	2.982	-3.3044	2.3578	4.8784	-10.8267	-2.0032	-8.3542	-4.8346	-7.8013	-2.5298	-1.8146	-0.9361	-1.4757	6.1144	-0.3711	-3.529	-1.2196	-1.9592	-1.0184	10.4019	3.2411	0.4935	0.335	0.2103	0.2815	0.362	0.2296	0.284	0.3719	0.4352	0.327	0.4156	0.2518	0.4798	0.4222	0.3193	0.2021	0.2515	0.4412	0.2086	6.322	1.6976	4.6998	4	146	1.09259421634255	0	1
"147"	4	32	3	0	0	1	8	1	1	2.413	4.0259	-4.0087	4.286	2.6564	-2.0193	10.895	3.0869	-8.4765	2.4315	7.3462	-3.7923	-4.021	-2.5595	-6.8973	1.579	0.859	-5.192	5.8413	-2.982	-3.327	0.333	0.333	0.333	0.333	0.333	0.333	0.333	0.333	0.333	0.333	0.333	0.333	0.333	0.333	0.333	0.333	0.333	0.333	0.333	6.327	1.4831	3.914	4	147	0.880870786642895	1	0
"148"	4	21	3	4	4.84	1	8	1	1	2.352	6.296	12.4384	4.7359	6.6345	6.5588	-1.1201	6.9699	-7.5012	9.3673	3.1922	3.5344	8.0246	-0.057	11.0215	0.3182	4.7966	12.6686	6.1379	-0.6172	3.5789	0.333	0.333	0.333	0.333	0.333	0.333	0.333	0.333	0.333	0.333	0.333	0.333	0.333	0.333	0.333	0.333	0.333	0.333	0.333	6.327	1.4586	3.8198	4	148	0.85526603003638	1	0
"149"	4	10	3	-1	-1.21	0	7	-1	1	2.192	-0.5295	-2.9649	4.085	-4.1961	-6.0645	-1.5153	-12.7373	0.2069	-3.5349	5.8051	-2.3198	-3.5149	5.1275	-3.797	-2.5147	7.1773	-0.1547	-6.0306	5.9083	-4.1416	0.2232	0.4362	0.3584	0.228	0.4475	0.2849	0.249	0.2098	0.3229	0.4864	0.2778	0.303	0.334	0.2549	0.3034	0.4792	0.3643	0.4648	0.3057	6.3333	1.6963	3.8928	4	149	0.784814369085769	0	1
"150"	4	30	3	-2	-2.42	1	7	-1	1	2.24	-3.4005	-8.2513	-8.3043	6.095	-6.4269	-3.4473	-4.0354	-4.961	-3.9494	3.2991	-3.4741	-3.9462	-2.4246	5.9213	-2.9477	-0.9753	-10.6723	-5.436	2.6545	7.6091	0.333	0.333	0.333	0.333	0.333	0.333	0.333	0.333	0.333	0.333	0.333	0.333	0.333	0.333	0.333	0.333	0.333	0.333	0.333	6.327	1.6741	3.9242	4	150	0.806475865866949	0	1
"151"	4	57	3	-4	-4.84	1	7	-1	1	2.089	-3.8969	-1.0305	-2.8151	-9.7063	-6.7249	-3.7819	2.5726	-2.9147	1.6722	-3.1999	-19.4046	-6.0122	-4.5564	-6.5591	-7.2334	-12.5003	-2.226	-1.2663	-0.4573	-5.133	0.333	0.333	0.333	0.333	0.333	0.333	0.333	0.333	0.333	0.333	0.333	0.333	0.333	0.333	0.333	0.333	0.333	0.333	0.333	6.327	1.417	3.5064	4	151	0.736685482574429	0	1
"152"	4	5	3	1	1.21	1	7	1	1	2.007	3.4152	0.9872	14.3073	4.4454	-2.9094	-5.2542	-0.7025	0.4335	-2.2172	5.6564	3.2158	-4.07	-0.3557	-3.2774	6.2061	-2.8252	8.4168	-3.3644	-2.4428	3.8702	0.333	0.333	0.333	0.333	0.333	0.333	0.333	0.333	0.333	0.333	0.333	0.333	0.333	0.333	0.333	0.333	0.333	0.333	0.333	6.327	1.5529	3.5574	4	152	0.696641069814201	1	0
"153"	4	51	3	-2	-2.42	0	10	1	0	3.077	0.2028	-9.5825	0.9017	1.0286	2.8967	-2.6911	-1.8999	0.6907	7.107	-6.4957	0.7487	-6.5425	-8.9706	-1.596	0.3714	2.9361	-3.5569	-12.3649	-8.1984	-3.771	0.2822	0.2206	0.4027	0.309	0.2039	0.2508	0.5095	0.2241	0.3708	0.4385	0.3393	0.2712	0.4921	0.3944	0.2303	0.3102	0.4643	0.3231	0.2841	6.3212	1.7008	4.7774	4	153	1.1239550963399	1	0
"154"	4	59	3	-1	-1.21	1	12	1	0	3.795	-4.2074	-1.7322	4.412	2.2691	2.6935	-10.774	4.947	-5.3864	-1.5781	0.3752	4.9995	-4.8522	5.5861	-4.3567	3.3414	-7.5307	-3.9027	-7.4743	3.3561	-3.5679	0.333	0.333	0.333	0.333	0.333	0.333	0.333	0.333	0.333	0.333	0.333	0.333	0.333	0.333	0.333	0.333	0.333	0.333	0.333	6.327	1.4364	5.2286	4	154	1.33368441084759	1	0
"155"	4	2	3	-2	-2.42	1	17	-1	1	5.595	-7.062	-8.4107	-8.8756	-0.0468	0.2344	-4.6349	-0.1356	4.8798	-2.2612	0.1183	8.0804	0.7555	-6.4473	5.8882	-7.166	-7.3488	-8.2617	-2.7484	-0.2386	-3.4247	0.333	0.333	0.333	0.333	0.333	0.333	0.333	0.333	0.333	0.333	0.333	0.333	0.333	0.333	0.333	0.333	0.333	0.333	0.333	6.327	1.7209	7.3123	4	155	1.72187334176389	0	1
"156"	4	61	3	1	1.21	1	8	1	1	2.336	-1.3221	1.2869	8.9227	2.9156	0.2803	7.756	3.1827	2.9881	3.7134	3.382	-3.2997	3.1622	1.6313	-6.4356	1.1217	0.3474	-0.8545	-6.0062	-9.61	10.058	0.333	0.333	0.333	0.333	0.333	0.333	0.333	0.333	0.333	0.333	0.333	0.333	0.333	0.333	0.333	0.333	0.333	0.333	0.333	6.327	1.6939	4.0531	4	156	0.848440064965981	1	0
"157"	4	8	3	-4	-4.84	0	11	-1	1	3.658	-1.9816	1.2845	2.7125	-12.095	-15.8754	-3.5655	-13.3659	-6.4268	-3.5732	0.1203	-4.2129	-1.3016	-2.1671	-4.858	-0.8653	-5.7156	-11.2171	-1.5836	-2.9187	-7.6588	0.4019	0.4899	0.2331	0.2923	0.2547	0.4629	0.3368	0.229	0.3771	0.2026	0.4229	0.4767	0.2291	0.311	0.2796	0.4076	0.2239	0.249	0.4515	6.3315	1.5815	5.2582	4	157	1.29691654996867	0	1
"158"	4	12	3	1	1.21	0	8	1	1	2.353	-0.4169	-3.9882	-1.5483	2.5365	-9.8894	5.4736	7.8455	-2.3547	3.8967	5.7377	1.1269	-9.5441	2.9928	4.3003	8.7667	-1.7341	2.3335	6.1426	-0.1162	3.6766	0.2498	0.2988	0.2347	0.4121	0.2072	0.2687	0.3654	0.4531	0.3532	0.2435	0.2071	0.4579	0.4937	0.4613	0.2934	0.2577	0.3798	0.2711	0.4103	6.3188	1.6247	3.9872	4	158	0.855691109745226	1	0
"159"	4	31	3	-1	-1.21	1	18	-1	1	5.901	3.3217	5.3361	0.6976	2.9918	7.4775	-4.0999	-3.8489	5.1366	-4.2442	-8.3277	2.1761	-2.1131	-0.7854	-2.5988	1.7119	-9.6092	-6.2839	-1.8479	-9.3714	-1.2171	0.333	0.333	0.333	0.333	0.333	0.333	0.333	0.333	0.333	0.333	0.333	0.333	0.333	0.333	0.333	0.333	0.333	0.333	0.333	6.327	1.565	7.4853	4	159	1.77512182807503	0	1
"160"	4	7	3	4	4.84	1	7	1	1	2.237	0.3642	7.8387	-4.2407	0.4981	3.5275	6.5686	5.2202	9.8118	7.8708	1.6341	-3.8959	3.9152	10.9844	7.5262	13.9695	2.6658	0.1662	3.8298	9.4307	10.6297	0.333	0.333	0.333	0.333	0.333	0.333	0.333	0.333	0.333	0.333	0.333	0.333	0.333	0.333	0.333	0.333	0.333	0.333	0.333	6.327	1.4343	3.6877	4	160	0.805135682507993	1	0
"161"	4	53	3	0	0	0	20	1	1	6.804	-3.7793	-0.1594	8.8732	-6.9678	2.1347	1.269	-3.0723	5.3917	3.5908	4.3997	-4.133	3.2105	-3.3094	-0.9143	3.1374	-9.8123	0.6766	3.4862	4.6128	-8.1879	0.4193	0.2722	0.3445	0.204	0.3202	0.2523	0.3188	0.2612	0.3315	0.5274	0.2398	0.4246	0.4802	0.3338	0.3991	0.4315	0.2	0.3569	0.2076	6.325	1.6827	8.488	4	161	1.91751067453362	1	0
"162"	4	28	3	4	4.84	0	7	1	1	2.199	6.4619	5.5449	13.1979	-1.2883	7.7867	2.0797	4.3211	8.3222	1.9233	9.0939	11.2009	3.4594	5.6445	10.6631	-3.8686	7.546	0.3726	-4.637	0.5991	10.0116	0.3253	0.3792	0.5046	0.3384	0.22	0.2905	0.4607	0.4335	0.2228	0.268	0.2368	0.345	0.2943	0.2648	0.2121	0.4437	0.3258	0.2792	0.4887	6.3336	1.7126	3.9166	4	162	0.788002711572624	1	0
"163"	4	70	3	4	4.84	0	6	1	1	1.714	8.5592	11.5577	9.3323	11.3545	8.3385	-1.6016	5.922	-2.689	-0.7353	2.4607	10.7639	5.8049	-0.6439	8.048	7.4341	3.3082	3.9937	9.2403	-0.5422	-3.7349	0.4489	0.2993	0.2373	0.3777	0.2333	0.4468	0.3531	0.2493	0.34	0.2397	0.5103	0.2915	0.4628	0.401	0.2169	0.2962	0.2342	0.4458	0.2503	6.3345	1.4503	3.165	4	163	0.538829820175588	1	0
"164"	4	6	3	2	2.42	1	6	1	1	1.826	2.6572	3.602	1.4148	2.104	-0.607	5.1398	11.2022	-7.494	7.8553	-7.02	-6.4724	8.978	5.3352	-0.0562	2.0994	5.9372	4.4941	0.4009	6.469	2.918	0.333	0.333	0.333	0.333	0.333	0.333	0.333	0.333	0.333	0.333	0.333	0.333	0.333	0.333	0.333	0.333	0.333	0.333	0.333	6.327	1.7119	3.5429	4	164	0.602127782172777	1	0
"165"	4	11	3	0	0	0	7	1	1	2.544	-1.4823	3.6302	12.3411	-4.4461	4.2516	3.0965	-5.9956	4.4989	2.0901	-0.5289	-3.7653	-0.1905	5.1804	-2.9884	-10.4946	-5.1635	0.2778	-0.0865	2.2991	-1.9597	0.5167	0.3339	0.3623	0.4716	0.2647	0.3804	0.2793	0.5254	0.3058	0.3315	0.391	0.2062	0.4033	0.3215	0.2755	0.2052	0.2394	0.2774	0.2274	6.3186	1.4204	3.9781	4	165	0.933737645477876	1	0
"166"	4	29	3	-4	-4.84	1	5	-1	1	1.548	-0.6237	-4.6855	-1.2768	-6.8686	-7.1228	-0.8948	-7.2885	-7.6008	-8.8618	-7.3068	-10.3123	-10.0863	-8.6525	5.9861	-4.8347	-6.1358	-0.1676	2.0308	-13.6796	2.6454	0.333	0.333	0.333	0.333	0.333	0.333	0.333	0.333	0.333	0.333	0.333	0.333	0.333	0.333	0.333	0.333	0.333	0.333	0.333	6.327	1.5584	3.1152	4	166	0.436963775167535	0	1
"167"	4	43	3	-4	-4.84	1	13	-1	1	4.078	-2.6136	-0.4271	-12.3285	-10.9053	2.5024	-2.8907	6.8834	-1.6117	-0.1492	-4.5721	-1.6445	-13.1087	-9.5709	-8.659	-2.924	-7.9981	-4.8406	-6.9053	-7.5771	-6.5771	0.333	0.333	0.333	0.333	0.333	0.333	0.333	0.333	0.333	0.333	0.333	0.333	0.333	0.333	0.333	0.333	0.333	0.333	0.333	6.327	1.5111	5.5949	4	167	1.40560667215226	0	1
"168"	4	20	3	2	2.42	1	6	1	1	1.851	2.009	-4.3777	-2.8215	13.3693	-0.3488	5.0328	10.2403	4.2264	-0.545	7.3906	1.4459	-1.2975	-2.608	5.5168	7.764	4.7566	-1.3179	-6.063	0.1437	4.7685	0.333	0.333	0.333	0.333	0.333	0.333	0.333	0.333	0.333	0.333	0.333	0.333	0.333	0.333	0.333	0.333	0.333	0.333	0.333	6.327	1.6216	3.4852	4	168	0.61572603359136	1	0
"169"	4	4	3	0	0	1	7	1	1	2.097	-2.5468	-3.0644	6.8297	8.112	6.5184	-4.5367	-0.8181	1.3936	2.2725	7.4987	1.9295	0.7861	-12.1986	-2.642	-0.4313	-5.5625	0.7018	-3.9581	-0.6128	0.3737	0.333	0.333	0.333	0.333	0.333	0.333	0.333	0.333	0.333	0.333	0.333	0.333	0.333	0.333	0.333	0.333	0.333	0.333	0.333	6.327	1.421	3.5308	4	169	0.740507751919783	1	0
"170"	4	55	3	2	2.42	0	12	1	1	3.673	-0.6694	4.9734	-1.3295	-5.9704	5.7346	2.7386	0.0302	4.4689	2.5902	4.8315	5.186	7.3607	5.2198	1.98	3.2007	-1.9407	9.888	-2.0649	11.3179	-9.4365	0.2903	0.3737	0.5013	0.2479	0.473	0.2807	0.2318	0.3163	0.2842	0.3648	0.2677	0.3253	0.2392	0.3995	0.3035	0.3299	0.3975	0.2975	0.4034	6.3277	1.6903	5.3735	4	170	1.30100876683753	1	0
"171"	4	69	3	2	2.42	0	8	1	1	2.827	-1.0717	2.6719	-6.0916	10.9112	5.8275	-4.0668	4.8376	6.3408	12.475	2.6546	-1.2967	3.7453	6.5715	1.3737	3.5389	-5.7692	4.1032	0.8075	-2.518	3.2324	0.3721	0.4298	0.4859	0.4542	0.2108	0.5094	0.2441	0.3089	0.2551	0.2017	0.2332	0.3688	0.4022	0.4752	0.2365	0.4407	0.2222	0.2694	0.213	6.3333	1.651	4.4946	4	171	1.03921607871145	1	0
"172"	4	26	3	1	1.21	0	9	1	1	2.574	3.6798	0.9001	5.4722	-3.2509	-1.4097	13.3358	-10.8439	-0.0309	0.5311	7.5785	2.2629	-2.4746	0.1543	-0.5569	-3.6844	1.3804	5.9072	0.3446	1.0078	4.5175	0.4285	0.3179	0.2277	0.3078	0.4406	0.2891	0.2359	0.2848	0.3308	0.5317	0.2002	0.4279	0.4955	0.3675	0.236	0.3243	0.2672	0.3171	0.2897	6.3201	1.6606	4.2411	4	172	0.945461109173935	1	0
"173"	4	68	3	1	1.21	0	9	-1	0	2.808	5.4201	5.9445	-1.5047	2.3363	5.0915	-8.6701	-1.6527	-0.3618	1.8771	-5.413	-4.1031	5.7809	1.3995	7.1726	3.7585	9.4326	3.1396	-3.1952	5.1192	-5.7246	0.3982	0.3408	0.4529	0.3345	0.2053	0.3132	0.2606	0.3459	0.2361	0.2851	0.3167	0.3933	0.3014	0.3533	0.3017	0.5151	0.3596	0.2398	0.3663	6.3199	1.4955	4.3088	4	173	1.03247248616356	0	1
"174"	4	50	3	-4	-4.84	0	5	-1	1	1.216	-3.8795	-6.124	-11.8296	-9.7741	4.1687	-9.1595	-10.9095	-7.83	-8.7622	-0.233	-3.4738	-2.1796	7.799	-3.0655	-2.0867	-6.5612	-9.7012	-6.2478	-3.6056	-2.9636	0.206	0.3865	0.2495	0.3534	0.2426	0.4958	0.2552	0.3758	0.4573	0.2089	0.3275	0.4862	0.2621	0.2946	0.3252	0.5294	0.2979	0.2032	0.377	6.3343	1.6687	2.8833	4	174	0.195566783543975	0	1
"175"	4	16	3	-2	-2.42	1	13	-1	1	4.145	-3.6697	0.1836	0.5689	1.6544	-8.9147	-5.6955	-6.6044	4.9352	-10.5036	-3.6588	-0.5648	-4.6978	-1.8737	-8.4433	-3.4086	-1.2173	5.8763	-8.3944	7.1664	-2.51	0.333	0.333	0.333	0.333	0.333	0.333	0.333	0.333	0.333	0.333	0.333	0.333	0.333	0.333	0.333	0.333	0.333	0.333	0.333	6.327	1.7095	5.8624	4	175	1.42190278858726	0	1
"176"	4	38	3	-1	-1.21	0	14	-1	1	4.526	-5.7316	0.3404	-5.113	-5.4135	2.5223	-5.6795	10.8229	2.9102	-4.8565	-5.5549	1.1415	8.2015	-3.003	-6.3028	-0.2647	-2.6744	-1.7384	-5.2698	4.2638	-1.0718	0.342	0.3789	0.4387	0.2776	0.2427	0.4522	0.3755	0.2651	0.2365	0.3025	0.259	0.5072	0.2103	0.345	0.4701	0.3195	0.3574	0.2473	0.3074	6.3349	1.5043	6.0262	4	176	1.50983854721135	0	1
"177"	4	56	3	4	4.84	0	6	1	1	1.646	2.0415	3.6528	6.2303	5.0727	5.667	3.258	13.3189	14.2444	2.7744	-0.9475	12.6659	4.6676	6.3423	10.5247	-4.3642	1.2151	-2.3431	5.1422	6.7103	0.8105	0.2392	0.4211	0.323	0.2184	0.3313	0.3966	0.3099	0.4804	0.3188	0.3786	0.2982	0.3261	0.2806	0.3424	0.2441	0.43	0.2907	0.4728	0.2332	6.3353	1.6811	3.3468	4	177	0.498348102254878	1	0
"178"	4	46	3	0	0	1	7	1	0	2.227	-2.0903	9.2841	-12.8369	-0.7989	-2.7817	1.2784	-0.1673	-5.8848	-0.6826	-1.123	-4.0773	0.2544	1.0547	3.7631	-1.7801	1.1999	-0.4434	11.4536	3.5702	0.3869	0.333	0.333	0.333	0.333	0.333	0.333	0.333	0.333	0.333	0.333	0.333	0.333	0.333	0.333	0.333	0.333	0.333	0.333	0.333	6.327	1.5008	3.7441	4	178	0.800655388275231	1	0
"179"	4	40	3	1	1.21	0	9	1	1	3.124	-1.07	-5.8558	10.4481	2.4927	3.6788	0.4237	6.3918	6.2	5.3002	-0.5991	-1.8791	-1.976	-2.1385	2.1105	-8.3268	-0.1169	-6.0677	5.0194	1.954	9.8043	0.4976	0.2652	0.4736	0.3242	0.4785	0.2506	0.3085	0.2094	0.3747	0.2378	0.2724	0.4149	0.33	0.4039	0.2754	0.2068	0.4453	0.3271	0.2363	6.3322	1.6894	4.825	4	179	1.13911423197744	1	0
"180"	4	14	3	4	4.84	0	5	1	1	1.232	6.799	4.6826	7.9026	13.8934	3.1038	10.6203	0.9256	-0.4324	10.8817	10.6934	2.7648	11.1085	-1.8146	1.7856	2.218	4.4644	-1.293	-3.3932	3.322	6.6053	0.2672	0.2402	0.2661	0.3633	0.4921	0.3226	0.2263	0.4998	0.248	0.3429	0.2846	0.3464	0.2999	0.2536	0.4353	0.4981	0.4085	0.3148	0.2102	6.3202	1.7269	2.966	4	180	0.208638865111328	1	0
"181"	4	60	3	0	0	1	7	-1	1	2.32	-4.8478	-5.1169	1.8099	0.8253	0.41	-2.1978	-3.0364	2.278	-3.3927	-5.4976	1.5495	-7.26	1.2925	6.1103	3.6332	-0.913	-0.7543	7.6873	-5.644	12.599	0.333	0.333	0.333	0.333	0.333	0.333	0.333	0.333	0.333	0.333	0.333	0.333	0.333	0.333	0.333	0.333	0.333	0.333	0.333	6.327	1.5001	3.8376	4	181	0.841567185678219	0	1
"182"	4	15	3	-4	-4.84	1	5	-1	1	1.504	-8.5586	-9.741	-6.2758	-0.8526	-6.5197	-11.384	4.75	-13.0294	-8.192	-6.7499	-11.6481	-0.1855	-5.2723	1.355	-1.7493	-6.7128	0.4958	1.5741	-6.7458	-1.7423	0.333	0.333	0.333	0.333	0.333	0.333	0.333	0.333	0.333	0.333	0.333	0.333	0.333	0.333	0.333	0.333	0.333	0.333	0.333	6.327	1.5538	3.071	4	182	0.408128225527648	0	1
"183"	4	36	3	-4	-4.84	0	5	-1	1	1.663	-3.4791	-6.1345	-1.1495	-8.957	-5.5286	-6.4227	-7.4768	-3.9455	-6.7906	-3.8389	3.8629	-0.6156	7.1149	-6.7435	-11.3305	-10.7555	-3.9536	-8.7767	-11.6075	0.4785	0.2565	0.3382	0.4178	0.2223	0.4471	0.2186	0.3189	0.5034	0.2329	0.3102	0.2691	0.4413	0.3623	0.4832	0.3979	0.2122	0.2711	0.3313	0.2933	6.3276	1.5201	3.1967	4	183	0.508623200210791	0	1
"184"	4	42	3	4	4.84	0	5	1	1	1.448	5.0988	4.9778	-0.3286	3.3751	5.2226	5.4975	0.6952	3.4478	7.0023	1.7362	11.8138	1.0355	10.5061	-6.699	10.8815	13.7273	-1.4484	7.7879	2.8723	9.9481	0.2521	0.3962	0.3021	0.3705	0.2205	0.3902	0.2407	0.3882	0.3226	0.4975	0.2962	0.3259	0.5182	0.3566	0.3866	0.3412	0.2095	0.3078	0.2064	6.3289	1.5898	3.0487	4	184	0.370183293963525	1	0
"185"	4	9	3	-2	-2.42	0	9	-1	1	2.359	0.7197	-11.4664	-0.6208	-1.0475	1.7343	-2.0276	-7.8301	-3.6828	1.6674	-2.9284	-3.5691	5.8978	-2.6552	-10.7112	-8.907	-7.2103	6.9961	-3.168	-2.1257	1.1455	0.2242	0.391	0.2358	0.3771	0.2445	0.3469	0.2668	0.2003	0.4836	0.5259	0.2297	0.4792	0.2484	0.4841	0.3023	0.3564	0.2813	0.2299	0.4115	6.3189	1.6407	4.0102	4	185	0.858237800425538	0	1
"186"	4	25	3	0	0	0	11	1	1	3.697	1.9389	4.9569	0.6913	4.9041	-2.7202	-5.9425	-12.6033	-5.1541	0.8617	0.5878	3.9899	1.9515	7.0246	-1.9585	-1.8653	-0.7065	4.751	-5.8329	7.6812	-1.4984	0.3407	0.4808	0.4517	0.405	0.3213	0.2711	0.2227	0.4514	0.3219	0.3508	0.2444	0.3139	0.407	0.2376	0.3009	0.246	0.2003	0.3397	0.4291	6.3363	1.6227	5.3308	4	186	1.30752167995449	1	0
"187"	4	45	3	-1	-1.21	1	6	-1	1	1.692	-5.9288	2.2026	2.8394	-3.9828	-4.7991	-5.4905	4.2021	-1.2439	-7.2764	-0.2077	-3.5198	3.5191	0.3929	2.4359	-6.2063	-6.4851	2.778	10.7604	-8.0001	1.0294	0.333	0.333	0.333	0.333	0.333	0.333	0.333	0.333	0.333	0.333	0.333	0.333	0.333	0.333	0.333	0.333	0.333	0.333	0.333	6.327	1.5577	3.2594	4	187	0.525911261184032	0	1
"188"	4	1	3	-4	-4.84	1	6	-1	1	1.907	-1.3856	-3.602	-6.2904	-0.248	-8.1241	0.6686	-9.6857	-9.2741	-0.4584	-1.4611	4.0082	-1.9625	-10.934	-8.8503	-3.793	-16.1448	-10.2437	0.4746	-6.0612	-2.3414	0.333	0.333	0.333	0.333	0.333	0.333	0.333	0.333	0.333	0.333	0.333	0.333	0.333	0.333	0.333	0.333	0.333	0.333	0.333	6.327	1.4504	3.3747	4	188	0.645531326618282	0	1
"189"	4	19	3	1	1.21	1	6	1	1	1.864	1.9751	3.1183	-5.8556	-0.5866	9.835	10.1841	0.5349	0.3417	0.9602	1.0526	1.9603	5.2427	3.9857	-0.9538	6.9684	4.2758	-6.7368	-7.3373	-6.5067	3.6438	0.333	0.333	0.333	0.333	0.333	0.333	0.333	0.333	0.333	0.333	0.333	0.333	0.333	0.333	0.333	0.333	0.333	0.333	0.333	6.327	1.6903	3.5643	4	189	0.6227247162634	1	0
"190"	4	3	3	-1	-1.21	1	14	1	0	4.505	2.0027	0.3135	-0.426	-2.6132	-6.533	0.9125	-3.4864	-5.2281	-0.0784	1.1806	4.5682	-2.632	-0.2742	2.8193	3.809	-1.383	-15.4223	2.4941	-9.1321	3.8771	0.333	0.333	0.333	0.333	0.333	0.333	0.333	0.333	0.333	0.333	0.333	0.333	0.333	0.333	0.333	0.333	0.333	0.333	0.333	6.327	1.6676	6.189	4	190	1.5051878910603	1	0
"191"	4	44	3	-2	-2.42	1	6	-1	1	1.942	-0.4909	-4.8243	-7.3399	-6.4708	-0.7957	-10.3364	-4.2085	-3.6015	3.3418	-2.3569	-7.1032	-9.6311	7.1655	4.8621	-1.4911	5.622	-1.8096	1.8625	-3.6047	-5.7331	0.333	0.333	0.333	0.333	0.333	0.333	0.333	0.333	0.333	0.333	0.333	0.333	0.333	0.333	0.333	0.333	0.333	0.333	0.333	6.327	1.4143	3.3763	4	191	0.663718369869133	0	1
"192"	4	67	3	0	0	0	7	1	1	2.41	2.5318	-5.4838	-1.6073	-0.2849	-5.46	8.9312	6.961	3.9191	2.1449	-7.7973	-4.8074	-7.5454	2.135	-5.8199	2.6306	5.5523	2.8494	-4.7224	1.9902	3.5461	0.3619	0.296	0.3811	0.4226	0.4623	0.2058	0.4633	0.2457	0.2737	0.2331	0.3066	0.2124	0.2791	0.5169	0.3955	0.4734	0.2498	0.3424	0.2076	6.3294	1.5259	3.9437	4	192	0.879626747502564	1	0
"193"	4	18	3	0	0	1	11	-1	1	3.35	-3.7443	-0.6819	4.5687	5.2235	-3.8401	-10.4467	0.6902	1.3923	-3.2294	-3.6611	0.3931	-9.9691	6.9426	4.3136	4.6915	3.6448	6.9117	2.0039	-3.4189	-2.445	0.333	0.333	0.333	0.333	0.333	0.333	0.333	0.333	0.333	0.333	0.333	0.333	0.333	0.333	0.333	0.333	0.333	0.333	0.333	6.327	1.5103	4.867	4	193	1.20896034583698	0	1
"194"	4	64	3	-4	-4.84	0	7	1	0	2.093	-8.4854	-1.219	-4.22	-4.9561	-5.2101	-4.4288	-5.1171	-11.3764	-7.5238	-2.6192	4.5529	1.3652	-2.1252	-8.4407	-13.6057	-1.9272	-4.1945	2.6737	-13.2321	-8.7062	0.2752	0.4519	0.3743	0.3192	0.2023	0.3287	0.2239	0.5034	0.2883	0.3508	0.5103	0.2202	0.33	0.4231	0.3663	0.3151	0.248	0.3581	0.2362	6.3253	1.6664	3.7605	4	194	0.738598443463863	1	0
"195"	4	54	3	1	1.21	0	6	1	1	1.848	-1.3147	-3.4648	6.5457	11.4192	4.6548	1.171	-0.3441	7.5343	4.8824	0.1612	-6.4426	-3.5851	-7.5569	-1.9907	0.0044	-1.1347	3.5134	0.8105	0.9972	9.285	0.2755	0.2333	0.4111	0.2214	0.2983	0.4438	0.2204	0.433	0.2788	0.4489	0.3306	0.283	0.5247	0.2612	0.467	0.2013	0.3486	0.2519	0.395	6.3279	1.4824	3.3318	4	195	0.614103973219493	1	0
"196"	4	41	3	2	2.42	0	6	1	1	1.977	-2.1448	9.8315	8.9387	3.0977	6.1409	1.5545	-4.7117	-5.9298	-3.9409	0.4924	2.9123	7.9063	8.2339	0.2065	6.5235	-1.4452	-4.0483	7.8451	3.5431	3.1956	0.2783	0.4456	0.2365	0.2637	0.442	0.3205	0.2373	0.3665	0.2229	0.4678	0.2556	0.4853	0.244	0.3219	0.5318	0.4108	0.3119	0.2128	0.2634	6.3188	1.4951	3.4777	4	196	0.68158054418848	1	0
"197"	4	49	3	4	4.84	1	7	1	1	2.161	1.178	6.7646	-0.5228	4.9266	-1.2005	2.5158	-3.8081	9.3049	10.2179	7.5967	10.8105	3.6374	-0.1891	8.2208	-2.6703	9.4287	4.7581	5.1457	5.4689	15.5112	0.333	0.333	0.333	0.333	0.333	0.333	0.333	0.333	0.333	0.333	0.333	0.333	0.333	0.333	0.333	0.333	0.333	0.333	0.333	6.327	1.6072	3.7785	4	197	0.770571077524749	1	0
"198"	4	17	3	-1	-1.21	1	5	-1	1	1.409	1.3102	-7.5323	-6.2703	-0.637	1.6103	0.2612	7.8402	-5.235	5.2151	-2.0406	-9.9313	-2.0945	5.7933	-1.0059	0.4331	-6.9278	-2.4898	7.3345	-6.1896	-3.2992	0.333	0.333	0.333	0.333	0.333	0.333	0.333	0.333	0.333	0.333	0.333	0.333	0.333	0.333	0.333	0.333	0.333	0.333	0.333	6.327	1.6802	3.0931	4	198	0.342880232916543	0	1
"199"	4	24	3	-1	-1.21	0	7	1	0	2.11	0.8362	-7.4957	-0.7265	3.3716	2.4841	-4.3379	-10.5226	3.1486	-0.2556	-2.2252	7.8793	-6.0712	-2.4143	-8.1017	-3.4913	-5.2306	-2.0465	-0.0238	2.5401	8.9519	0.4043	0.3645	0.2543	0.4896	0.2404	0.2043	0.3622	0.2869	0.5302	0.2578	0.2288	0.2684	0.3711	0.2428	0.3156	0.2828	0.3463	0.5286	0.3509	6.3299	1.6374	3.7446	4	199	0.746687947487975	1	0
"200"	4	48	3	2	2.42	1	6	1	1	1.839	4.7369	2.8495	-3.7509	-0.2952	8.4287	-4.4557	-1.8134	10.0475	0.2165	6.0784	8.3704	4.7813	-4.6067	13.0841	2.0049	1.8927	0.6374	-2.3105	2.5696	0.1611	0.333	0.333	0.333	0.333	0.333	0.333	0.333	0.333	0.333	0.333	0.333	0.333	0.333	0.333	0.333	0.333	0.333	0.333	0.333	6.327	1.519	3.3729	4	200	0.609221945622184	1	0
"201"	4	58	3	-2	-2.42	1	10	-1	1	3.199	-3.5347	1e-04	-0.485	1.6474	-11.6816	0.9042	3.9518	1.7	-5.5073	-3.4438	-5.5287	-2.6455	3.2784	-5.8371	-9.1364	5.0097	-7.7835	-0.0073	1.6314	-11.8651	0.333	0.333	0.333	0.333	0.333	0.333	0.333	0.333	0.333	0.333	0.333	0.333	0.333	0.333	0.333	0.333	0.333	0.333	0.333	6.327	1.4167	4.6332	4	201	1.16283826096738	0	1
"202"	4	37	3	-2	-2.42	0	6	-1	1	2.003	-3.2015	-5.6062	4.0856	-12.1626	-9.9792	-7.3805	4.4891	-0.3903	-5.197	-1.7819	-7.4091	-5.1037	2.585	0.206	-5.1226	4.3545	4.3258	-1.5523	-2.5775	-0.1928	0.3906	0.4377	0.2828	0.3815	0.2181	0.3651	0.4088	0.3776	0.3177	0.2195	0.3952	0.2522	0.4202	0.3838	0.2041	0.3163	0.2355	0.312	0.4	6.3186	1.4298	3.4537	4	202	0.694646056683681	0	1
"203"	4	63	3	4	4.84	1	6	1	1	1.722	9.6626	4.323	1.075	8.585	4.9442	3.8849	0.7543	2.9387	-3.0472	5.7216	1.4692	9.8108	5.183	0.8588	1.911	12.1351	0.7389	18.6421	2.3126	5.9697	0.333	0.333	0.333	0.333	0.333	0.333	0.333	0.333	0.333	0.333	0.333	0.333	0.333	0.333	0.333	0.333	0.333	0.333	0.333	6.327	1.5386	3.2724	4	203	0.543486406005539	1	0
"204"	4	66	3	-1	-1.21	0	5	-1	1	1.553	-3.5475	-0.5872	-7.961	-2.1786	4.1849	-0.1549	5.5242	-4.2062	-7.7007	3.3735	6.0246	-5.5648	2.925	-3.7239	-6.3593	-5.1044	-3.3401	5.2855	-7.268	5.109	0.3268	0.2328	0.3976	0.4627	0.2375	0.4986	0.3572	0.2107	0.3167	0.3984	0.2151	0.3503	0.4684	0.3554	0.4216	0.2201	0.3285	0.247	0.2753	6.3205	1.5472	3.1043	4	204	0.44018854416655	0	1
"205"	4	34	3	2	2.42	1	8	1	1	2.522	1.4779	-1.7049	0.3189	6.1501	-3.7897	-6.2669	2.9267	1.7228	-1.3845	10.5939	-1.4649	3.3708	-1.9485	2.1474	4.4359	10.1681	7.42	12.0404	1.1308	-0.3302	0.333	0.333	0.333	0.333	0.333	0.333	0.333	0.333	0.333	0.333	0.333	0.333	0.333	0.333	0.333	0.333	0.333	0.333	0.333	6.327	1.4932	4.0221	4	205	0.925052237542728	1	0
"206"	4	27	3	2	2.42	0	15	1	1	5.072	-1.7803	-3.0987	10.9062	-4.6957	-1.1845	-0.7045	5.1565	-7.195	1.295	3.6043	1.4647	-1.3375	9.83	4.8505	-0.1056	6.8624	10.0811	6.9081	3.362	6.0188	0.3038	0.411	0.4842	0.2531	0.4545	0.3593	0.218	0.2933	0.3624	0.3073	0.4846	0.231	0.5319	0.206	0.2608	0.4186	0.3021	0.2047	0.2497	6.3361	1.6755	6.7563	4	206	1.62373521713492	1	0
"207"	4	39	3	0	0	0	8	-1	0	2.138	2.036	2.0572	0.1562	-8.0184	-4.1649	-5.8066	-6.6496	3.8061	2.5518	5.5965	5.8336	5.4592	-5.3747	4.2287	-5.7375	-0.6885	-2.5901	0.2191	9.8446	-1.5524	0.2751	0.3639	0.2096	0.3929	0.2188	0.2838	0.2314	0.5242	0.3963	0.2442	0.3137	0.279	0.2505	0.4586	0.5062	0.2477	0.2751	0.4033	0.4502	6.3245	1.5638	3.7058	4	207	0.759870812602853	0	1
"208"	4	65	3	-2	-2.42	0	11	-1	1	3.265	2.0487	-11.0443	-3.3114	-0.8509	-4.3212	-4.2669	2.1482	3.1218	-3.2837	-3.2948	-11.1541	-2.233	-4.4905	-3.5014	-7.9976	2.4503	-2.642	6.2218	6.2809	-7.1015	0.2427	0.3361	0.2503	0.3522	0.2067	0.4906	0.2164	0.256	0.4855	0.372	0.4415	0.3265	0.2655	0.3011	0.4236	0.2958	0.3249	0.2335	0.4997	6.3207	1.5338	4.7993	4	208	1.18325976272839	0	1
"209"	4	23	3	-2	-2.42	0	7	1	0	2.552	-1.0913	-1.6729	-5.354	-1.9217	6.4901	-9.0284	6.0954	-1.1465	-5.6121	7.3698	-3.4322	-1.8451	-2.1277	-4.615	-8.1365	-3.9098	0.8899	-2.65	-6.1033	-11.5102	0.3163	0.4318	0.5014	0.4143	0.4787	0.279	0.2109	0.4889	0.2708	0.2283	0.3556	0.2255	0.2518	0.3225	0.2705	0.2113	0.4386	0.2392	0.3906	6.326	1.7004	4.2532	4	209	0.936877365482543	1	0
"210"	4	62	3	2	2.42	1	9	1	1	2.916	2.8675	12.3094	3.422	6.9348	-2.4962	-1.3227	-7.6618	4.2438	6.5818	0.6298	1.3043	8.0546	1.8246	1.6979	7.6928	2.7199	5.6875	3.882	-2.121	-6.8912	0.333	0.333	0.333	0.333	0.333	0.333	0.333	0.333	0.333	0.333	0.333	0.333	0.333	0.333	0.333	0.333	0.333	0.333	0.333	6.327	1.4175	4.333	4	210	1.07021281414641	1	0
"211"	4	9	4	-2	-2.42	0	8	-1	1	2.632	-4.5	6.2832	2.9777	1.3915	3.6216	-7.8584	-1.2977	-6.8045	-1.871	-9.3311	5.1102	-7.5406	-9.3497	-3.3277	1.7241	-6.6907	-7.3422	-3.0201	2.9682	-1.5778	0.3325	0.2336	0.4018	0.2312	0.2974	0.4591	0.4253	0.3665	0.4268	0.2652	0.4422	0.2523	0.2163	0.4856	0.2701	0.3724	0.2475	0.2859	0.3157	6.3276	1.5564	4.1993	4	211	0.967744013463071	0	1
"212"	4	67	4	0	0	0	7	1	1	1.824	-3.2253	-1.7625	5.0223	1.0266	2.0658	-3.4827	-6.6625	4.5219	-3.9179	-0.9999	-5.6068	4.958	-7.0785	-0.6155	6.5919	7.8336	7.2592	0.1847	2.6473	-7.4167	0.2131	0.4906	0.2486	0.2183	0.26	0.3147	0.2192	0.3618	0.2466	0.5015	0.4052	0.2745	0.4451	0.4858	0.2542	0.3809	0.2515	0.5212	0.2373	6.3301	1.6463	3.4743	4	212	0.60103189165214	1	0
"213"	4	62	4	2	2.42	1	5	1	1	1.346	4.9035	4.2356	3.6146	10.2408	5.6417	-0.43	1.62	-0.4769	4.4739	-3.2408	7.4953	4.0978	6.125	-6.054	-0.2239	4.1462	-0.1823	1.5315	-9.5249	9.3888	0.333	0.333	0.333	0.333	0.333	0.333	0.333	0.333	0.333	0.333	0.333	0.333	0.333	0.333	0.333	0.333	0.333	0.333	0.333	6.327	1.4425	2.797	4	213	0.297137231222536	1	0
"214"	4	59	4	-1	-1.21	1	12	-1	1	3.82	2.565	0.464	-0.5384	2.4033	0.7034	6.3914	-0.8885	-12.6273	-8.1763	-1.3136	-6.2645	-5.2788	6.057	4.5178	-0.7263	-5.4522	-8.301	1.7828	2.6255	-0.8452	0.333	0.333	0.333	0.333	0.333	0.333	0.333	0.333	0.333	0.333	0.333	0.333	0.333	0.333	0.333	0.333	0.333	0.333	0.333	6.327	1.5528	5.387	4	214	1.34025042261848	0	1
"215"	4	24	4	-1	-1.21	0	10	-1	1	3.579	-1.1188	-8.0436	4.3675	1.9743	-2.3276	2.1106	-5.1298	-6.4354	2.9781	-8.2691	-6.9277	-4.0293	8.8851	-6.2044	6.2943	-3.7369	0.5226	2.1389	0.3429	-1.0161	0.5189	0.2622	0.3293	0.4874	0.3521	0.2222	0.4776	0.2392	0.3187	0.5323	0.2475	0.3377	0.2651	0.3431	0.2001	0.3741	0.2823	0.2393	0.2988	6.328	1.7002	5.2796	4	215	1.27508343178389	0	1
"216"	4	20	4	2	2.42	1	5	1	1	1.598	2.2065	-2.6793	2.8794	0.973	-1.7912	3.9229	4.7973	-6.0949	3.0548	5.4779	4.1232	6.2834	14.4832	6.2785	1.3401	0.1076	1.5047	-1.9025	9.7439	-6.4972	0.333	0.333	0.333	0.333	0.333	0.333	0.333	0.333	0.333	0.333	0.333	0.333	0.333	0.333	0.333	0.333	0.333	0.333	0.333	6.327	1.5313	3.1319	4	216	0.468752847344083	1	0
"217"	4	69	4	2	2.42	0	4	1	1	1.29	7.2847	3.7791	6.8559	3.3497	7.8196	3.8197	-1.8715	-3.8547	5.2563	0.4567	0.2917	-0.5083	-2.2475	2.7287	-0.3923	12.917	-3.3077	10.7684	-6.2345	0.7429	0.2042	0.3579	0.2983	0.4427	0.2719	0.4685	0.3678	0.2836	0.3179	0.2038	0.2688	0.333	0.436	0.3181	0.4594	0.2338	0.2956	0.3584	0.3981	6.318	1.653	2.9408	4	217	0.254642218373581	1	0
"218"	4	6	4	2	2.42	1	11	1	1	3.403	2.7194	10.7095	-0.1403	-4.0906	-8.9805	-1.4337	1.4882	0.8848	5.9308	9.3044	3.7859	3.8935	8.0594	4.529	-2.0807	0.4129	2.6324	10.2299	-3.6636	3.6163	0.333	0.333	0.333	0.333	0.333	0.333	0.333	0.333	0.333	0.333	0.333	0.333	0.333	0.333	0.333	0.333	0.333	0.333	0.333	6.327	1.5805	4.9869	4	218	1.22465739551877	1	0
"219"	4	48	4	2	2.42	1	8	1	1	2.591	2.6981	0.3247	-2.1969	1.8911	2.5973	0.6035	7.6927	4.2942	-5.1677	4.86	1.4029	12.9866	6.5943	-1.328	-1.4081	7.4204	-4.7882	-5.3162	3.2818	10.2754	0.333	0.333	0.333	0.333	0.333	0.333	0.333	0.333	0.333	0.333	0.333	0.333	0.333	0.333	0.333	0.333	0.333	0.333	0.333	6.327	1.5933	4.1919	4	219	0.952043901579973	1	0
"220"	4	25	4	0	0	0	8	-1	1	2.587	-0.8564	5.5878	-7.3322	0.7425	2.9852	5.3242	-9.7296	2.671	-0.0024	-1.9393	7.9172	2.836	0.1819	-0.277	-3.0985	0.1156	-11.5877	-1.2893	4.6228	2.7665	0.3255	0.2271	0.3613	0.2223	0.4847	0.3321	0.4549	0.2459	0.463	0.2667	0.5094	0.2586	0.3262	0.2069	0.3376	0.2335	0.3818	0.2973	0.3974	6.3325	1.7137	4.3207	4	220	0.950498903203892	0	1
"221"	4	28	4	4	4.84	0	9	1	1	2.777	0.5532	4.0025	-2.7579	0.3075	5.2852	1.1921	10.1299	-3.4325	3.1068	8.3421	5.0864	10.4127	0.8232	6.9983	12.4505	12.336	11.2471	-0.8273	6.8075	5.3507	0.2694	0.4292	0.203	0.3667	0.4129	0.2272	0.2678	0.3599	0.2586	0.3518	0.2079	0.5287	0.2472	0.2009	0.4713	0.4339	0.3931	0.2884	0.4083	6.3264	1.693	4.4774	4	221	1.02137120832466	1	0
"222"	4	50	4	-4	-4.84	0	6	-1	1	1.636	-4.6507	-10.0362	-6.1222	-0.8787	-3.9938	-9.5777	4.6172	-5.25	3.0418	-5.9885	-5.33	-8.427	4.2469	-12.3365	-2.0852	-9.7503	-9.5733	-0.5435	-10.0857	-3.2765	0.2849	0.3334	0.4262	0.3307	0.2406	0.4416	0.2188	0.2527	0.5049	0.3879	0.3262	0.282	0.2025	0.2764	0.218	0.3547	0.459	0.2581	0.5276	6.3262	1.6365	3.2868	4	222	0.492254238180555	0	1
"223"	4	19	4	1	1.21	1	7	1	1	2.235	3.7568	-7.2147	2.0074	6.8792	-4.5742	0.3707	6.8472	-4.0891	-0.5861	-7.1288	-7.2195	0.6221	4.4411	2.3872	1.1676	1.0865	4.2673	8.2655	2.7568	8.904	0.333	0.333	0.333	0.333	0.333	0.333	0.333	0.333	0.333	0.333	0.333	0.333	0.333	0.333	0.333	0.333	0.333	0.333	0.333	6.327	1.6051	3.8527	4	223	0.804241228065532	1	0
"224"	4	2	4	-2	-2.42	1	5	-1	1	1.639	-1.4615	1.0266	-1.1754	-3.6349	-8.3715	0.967	0.3938	-6.9585	-0.1625	-4.7984	-7.219	2.4055	-13.9831	-3.6827	-5.1814	6.2025	-6.9352	-4.2587	3.8476	3.43	0.333	0.333	0.333	0.333	0.333	0.333	0.333	0.333	0.333	0.333	0.333	0.333	0.333	0.333	0.333	0.333	0.333	0.333	0.333	6.327	1.6549	3.3069	4	224	0.494086299761693	0	1
"225"	4	11	4	0	0	0	6	1	1	1.749	4.6251	4.2233	-1.3846	4.4036	-3.5016	-1.7425	-5.7032	-2.1448	-7.5842	10.7344	5.583	-1.1245	-8.0552	-4.3492	-2.0623	3.0718	4.0252	-3.1415	-3.1636	5.979	0.3655	0.2117	0.4257	0.3195	0.4041	0.4433	0.2745	0.3076	0.4064	0.276	0.3884	0.317	0.3996	0.3041	0.2389	0.398	0.2349	0.3544	0.2613	6.331	1.6885	3.4494	4	225	0.559044196036465	1	0
"226"	4	47	4	1	1.21	1	16	1	1	5.117	5.4055	-2.7267	1.8829	-6.2533	-4.6446	4.623	2.7703	-7.0587	12.2303	-3.6127	4.8449	-1.4717	6.3781	2.3026	-0.0344	1.2273	3.5057	5.2498	-5.1619	3.2642	0.333	0.333	0.333	0.333	0.333	0.333	0.333	0.333	0.333	0.333	0.333	0.333	0.333	0.333	0.333	0.333	0.333	0.333	0.333	6.327	1.7023	6.8347	4	226	1.63256832982295	1	0
"227"	4	5	4	1	1.21	1	9	1	1	2.772	4.3776	-2.7481	-9.5016	8.8513	5.9771	-1.1446	4.6721	-1.9559	-1.2714	4.9942	0.7102	2.6049	-4.1201	-0.1414	-3.2072	6.7596	-0.6465	11.7582	-3.0541	3.2661	0.333	0.333	0.333	0.333	0.333	0.333	0.333	0.333	0.333	0.333	0.333	0.333	0.333	0.333	0.333	0.333	0.333	0.333	0.333	6.327	1.6287	4.4064	4	227	1.01956908132766	1	0
"228"	4	45	4	-1	-1.21	1	8	-1	1	2.659	-2.6069	-3.9213	-4.5788	2.8958	1.8651	0.575	-13.7877	3.1462	-0.9696	-3.7442	2.863	-3.7818	0.3791	-7.9687	1.7579	-3.7799	6.1995	0.3888	8.0566	-5.5561	0.333	0.333	0.333	0.333	0.333	0.333	0.333	0.333	0.333	0.333	0.333	0.333	0.333	0.333	0.333	0.333	0.333	0.333	0.333	6.327	1.663	4.3263	4	228	0.977950112260883	0	1
"229"	4	29	4	-4	-4.84	1	7	-1	1	2.315	-0.3591	-0.9765	3.1754	-8.9197	-4.3655	-7.5789	-5.3728	-19.1272	-5.9896	-0.1539	-9.4119	-8.2866	1.4637	-6.755	-4.3531	-3.3038	-6.9029	-3.7082	-6.4635	1.524	0.333	0.333	0.333	0.333	0.333	0.333	0.333	0.333	0.333	0.333	0.333	0.333	0.333	0.333	0.333	0.333	0.333	0.333	0.333	6.327	1.6261	3.949	4	229	0.839409687538197	0	1
"230"	4	14	4	4	4.84	0	8	1	1	2.27	2.3313	4.4021	17.6172	4.1578	0.7774	9.101	7.5426	-1.9963	8.6298	-1.2974	1.2965	4.624	4.6814	11.6314	5.5197	9.5869	0.4467	-2.3389	5.5937	4.9726	0.4454	0.3988	0.2283	0.3868	0.2184	0.3229	0.2543	0.3531	0.4394	0.2032	0.2442	0.479	0.2561	0.3869	0.4772	0.214	0.5257	0.285	0.2013	6.32	1.7312	4.0045	4	230	0.819779831493311	1	0
"231"	4	41	4	2	2.42	0	7	1	1	2.116	6.4778	13.192	-1.2299	-1.6796	3.2813	2.9465	2.8823	6.307	1.8757	5.5537	2.9606	-10.3056	-2.272	-1.8958	-3.8901	6.1897	5.0598	5.8574	4.7804	0.8776	0.4114	0.2563	0.2849	0.2011	0.2684	0.3734	0.3469	0.452	0.203	0.2884	0.2282	0.3931	0.2861	0.3699	0.2758	0.4014	0.4626	0.5314	0.2862	6.3205	1.555	3.6664	4	231	0.749527513996053	1	0
"232"	4	37	4	-2	-2.42	0	13	-1	1	4.316	-1.2755	-0.1547	2.4826	2.0151	-3.6467	-3.9313	-5.7411	-3.5763	-8.7635	1.7104	-6.2067	-11.5279	3.6842	1.943	7.1344	4.1393	-8.9499	-6.3624	-5.1939	-5.8644	0.4012	0.3512	0.3804	0.3148	0.2644	0.2107	0.4523	0.2107	0.2459	0.4772	0.3636	0.5053	0.4653	0.294	0.2455	0.2048	0.3703	0.3238	0.2393	6.3206	1.6791	6.017	4	232	1.46232904739589	0	1
"233"	4	18	4	0	0	1	4	1	1	1.254	0.7991	5.1144	6.8982	-0.2894	1.6704	1.2151	-2.8223	-0.9393	10.4451	-3.3549	4.8208	0.2213	-0.4666	-10.4672	-10.5526	-1.4319	2.7245	-4.4691	-0.9259	1.0363	0.333	0.333	0.333	0.333	0.333	0.333	0.333	0.333	0.333	0.333	0.333	0.333	0.333	0.333	0.333	0.333	0.333	0.333	0.333	6.327	1.4187	2.688	4	233	0.226338442210729	1	0
"234"	4	65	4	-2	-2.42	0	7	-1	1	2.244	-3.1877	-11.9809	-1.5364	-4.0324	-2.598	-5.41	-4.3634	-0.9904	5.5799	-3.72	1.4927	-6.5065	-0.1479	-0.7483	6.5117	2.3104	4.175	-1.9579	-9.0387	-10.9562	0.4144	0.2826	0.3307	0.5201	0.2732	0.3561	0.2004	0.3672	0.2515	0.444	0.2447	0.2962	0.2453	0.5271	0.3549	0.2494	0.4237	0.2623	0.2901	6.3338	1.6798	3.9451	4	234	0.80825998766045	0	1
"235"	4	43	4	-4	-4.84	1	5	-1	1	1.538	-9.7699	-9.9256	-0.725	-2.2739	-0.6246	-6.9955	-6.445	-6.2678	0.5632	2.2187	-8.172	-12.0888	3.3595	-9.599	-0.3166	-10.1092	-4.7324	-0.0489	-12.9381	-3.505	0.333	0.333	0.333	0.333	0.333	0.333	0.333	0.333	0.333	0.333	0.333	0.333	0.333	0.333	0.333	0.333	0.333	0.333	0.333	6.327	1.62	3.1722	4	235	0.430482871083452	0	1
"236"	4	64	4	-4	-4.84	0	9	-1	1	2.632	-8.8032	-4.5078	-4.6959	5.0307	-3.7355	-5.6269	-3.9472	-9.1136	-5.4988	-4.8794	-10.7637	-7.7554	-4.6071	4.0855	-2.9888	-5.5046	0.0518	-17.844	0.8284	-6.323	0.5179	0.3028	0.3643	0.2267	0.332	0.203	0.3912	0.2701	0.4337	0.3919	0.2816	0.3135	0.3448	0.2963	0.4143	0.2014	0.2985	0.5159	0.2172	6.3171	1.6558	4.299	4	236	0.967744013463071	0	1
"237"	4	42	4	4	4.84	0	7	1	1	2.179	7.1846	-4.3423	10.2656	8.7243	7.6619	14.3272	5.1597	1.5128	5.2667	2.3353	12.665	2.1662	1.4393	3.4846	3.5367	-1.6942	1.7473	12.9072	0.6919	1.0888	0.4613	0.3751	0.2091	0.3613	0.416	0.3035	0.2063	0.3152	0.3672	0.2155	0.3292	0.3915	0.215	0.2845	0.3746	0.2326	0.3149	0.4962	0.4581	6.3271	1.6092	3.7961	4	237	0.778866055962483	1	0
"238"	4	56	4	4	4.84	0	6	1	1	2.095	1.3374	-0.6954	2.5675	8.6284	10.2692	-0.1129	11.2758	-1.6479	12.2888	3.177	10.2243	10.6307	-0.8574	1.7414	0.946	3.2817	-1.2103	4.367	6.9185	12.001	0.2099	0.4216	0.3397	0.3675	0.5163	0.4057	0.3175	0.243	0.3345	0.2574	0.3156	0.3708	0.2378	0.2875	0.3175	0.2808	0.4648	0.228	0.4073	6.3232	1.6614	3.762	4	238	0.739553553374101	1	0
"239"	4	36	4	-4	-4.84	0	6	-1	1	1.866	-6.7071	6.6834	-6.2909	-5.677	-5.8302	-2.0554	-2.6413	-6.2657	-16.8254	-9.5482	-4.1178	-6.986	-3.4455	-2.9937	-5.6885	4.1663	-1.452	-10.4558	-3.2299	-7.1404	0.2201	0.371	0.3047	0.3618	0.2632	0.4344	0.4863	0.2525	0.2131	0.4815	0.3574	0.2613	0.3751	0.2382	0.3236	0.2163	0.5178	0.2744	0.3784	6.3311	1.4803	3.3498	4	239	0.623797102425152	0	1
"240"	4	17	4	-1	-1.21	1	10	-1	1	3.266	1.7452	-5.9032	6.2142	-0.5487	-3.6178	-10.8341	-0.9479	0.2772	0.7981	-2.8153	4.6027	4.0064	3.6727	-8.7341	-7.9146	0.5898	-0.574	5.6024	-6.9049	-1.4476	0.333	0.333	0.333	0.333	0.333	0.333	0.333	0.333	0.333	0.333	0.333	0.333	0.333	0.333	0.333	0.333	0.333	0.333	0.333	6.327	1.6304	4.8996	4	240	1.18356599454827	0	1
"241"	4	60	4	0	0	1	7	1	0	2.05	2.3905	5.4649	-2.3451	-5.9206	-0.3739	-5.7771	-6.7838	8.0997	-1.794	1.8011	5.6155	2.4174	10.2682	2.1987	-0.6831	-1.3969	-10.135	-0.7627	-0.8827	-2.9319	0.333	0.333	0.333	0.333	0.333	0.333	0.333	0.333	0.333	0.333	0.333	0.333	0.333	0.333	0.333	0.333	0.333	0.333	0.333	6.327	1.439	3.4835	4	241	0.717839793150317	1	0
"242"	4	46	4	0	0	1	7	1	1	2.026	4.1898	-1.766	3.0335	1.0199	7.1637	4.3829	2.4023	-4.2816	-8.6032	-9.118	-0.9024	1.9065	-4.0332	2.2651	10.1378	-8.2837	1.2081	2.2724	-0.9801	-1.9724	0.333	0.333	0.333	0.333	0.333	0.333	0.333	0.333	0.333	0.333	0.333	0.333	0.333	0.333	0.333	0.333	0.333	0.333	0.333	6.327	1.6337	3.66	4	242	0.706063405826492	1	0
"243"	4	49	4	4	4.84	1	6	1	1	1.837	6.6601	9.1126	9.1269	2.1872	4.0333	13.7276	2.1295	10.3272	1.4134	-1.4612	3.213	6.3674	10.1951	4.1687	-4.6916	4.6899	5.2633	2.5342	12.5607	-3.7823	0.333	0.333	0.333	0.333	0.333	0.333	0.333	0.333	0.333	0.333	0.333	0.333	0.333	0.333	0.333	0.333	0.333	0.333	0.333	6.327	1.6297	3.4711	4	243	0.608133806232989	1	0
"244"	4	52	4	-1	-1.21	0	6	-1	1	1.666	2.7145	-5.1885	-0.4624	-2.9843	-9.1749	6.1667	5.1754	-0.1365	2.2344	-6.735	-9.2918	-0.9134	8.3433	-5.3031	2.2083	-5.7999	0.2849	-5.8129	-2.0289	2.7288	0.2816	0.2424	0.4202	0.2435	0.3113	0.2205	0.3553	0.3135	0.2169	0.3987	0.4341	0.3578	0.2308	0.2818	0.3298	0.2339	0.4384	0.4916	0.5192	6.3213	1.5618	3.2501	4	244	0.510425543744651	0	1
"245"	4	26	4	1	1.21	0	6	-1	0	2.074	-0.7583	5.133	-1.9324	-10.8264	2.3171	1.2249	5.4741	4.567	1.2823	5.1115	-0.6794	-1.1432	0.5999	-10.0416	0.7513	1.79	1.4313	9.209	2.7273	8.7411	0.4903	0.2725	0.4315	0.2406	0.3409	0.3133	0.462	0.2878	0.2082	0.4336	0.2066	0.2319	0.3859	0.2781	0.4254	0.2885	0.3671	0.285	0.3839	6.3332	1.7115	3.8086	4	245	0.729479109807336	0	1
"246"	4	51	4	-2	-2.42	0	7	-1	1	2.128	-0.0339	-6.0456	8.639	8.4153	-6.8896	-3.5261	-2.0534	-4.0565	-3.771	-3.9735	-3.1738	7.0213	-5.2095	-5.8625	-4.1655	-5.8224	-5.0597	-2.2281	-1.5077	-9.2846	0.2477	0.4106	0.5203	0.2414	0.2818	0.2464	0.2021	0.3126	0.3995	0.4592	0.3144	0.2509	0.4019	0.2233	0.3398	0.5022	0.3071	0.2423	0.4206	6.3242	1.4628	3.6121	4	246	0.755182571479398	0	1
"247"	4	55	4	2	2.42	0	12	1	1	3.904	3.6891	5.4543	2.2686	-9.7286	1.4858	-3.3018	9.111	1.3774	11.0605	-0.111	7.2551	4.156	-5.0349	-1.9419	3.6712	4.5754	9.0834	2.7082	-1.754	4.0972	0.345	0.4037	0.2059	0.4538	0.495	0.2847	0.2219	0.2934	0.3603	0.4027	0.3681	0.2474	0.3434	0.2113	0.3757	0.2058	0.4093	0.4568	0.2475	6.3317	1.5188	5.4382	4	247	1.36200166855085	1	0
"248"	4	27	4	2	2.42	0	11	1	1	3.629	1.5507	4.2818	4.1185	-0.5148	5.6174	3.6927	-3.0059	3.0666	8.7851	3.7886	2.5589	7.7386	-1.2507	2.5967	-5.6986	-6.1021	10.9466	-6.1431	7.6102	4.9656	0.2961	0.2269	0.2933	0.201	0.5257	0.4454	0.2563	0.2907	0.4173	0.5021	0.2227	0.4421	0.2833	0.2205	0.3335	0.2555	0.3926	0.4615	0.2527	6.3193	1.5915	5.23	4	248	1.28895712823093	1	0
"249"	4	40	4	1	1.21	0	5	-1	0	1.78	-3.1344	0.6052	2.583	2.8279	-1.2587	5.3757	-3.4117	0.1903	-3.1066	3.533	0.7948	7.2524	-9.5761	-8.2845	6.7085	2.6954	6.812	4.4866	8.2039	1.0838	0.338	0.4434	0.248	0.4714	0.321	0.3662	0.3093	0.2018	0.3768	0.4529	0.219	0.4163	0.3177	0.267	0.3443	0.2584	0.4592	0.2078	0.3021	6.3205	1.4055	3.1978	4	249	0.576613364303994	0	1
"250"	4	61	4	1	1.21	1	11	1	1	3.581	2.3243	10.0124	-0.1433	-4.3928	2.5306	1.5	-6.0903	-2.9908	4.0732	5.6412	5.7359	-2.3016	-1.9662	-1.8316	3.2206	-9.507	9.4679	-0.5174	7.2314	0.8739	0.333	0.333	0.333	0.333	0.333	0.333	0.333	0.333	0.333	0.333	0.333	0.333	0.333	0.333	0.333	0.333	0.333	0.333	0.333	6.327	1.6937	5.2817	4	250	1.2756420910163	1	0
"251"	4	15	4	-4	-4.84	1	8	-1	1	2.531	-5.3761	-9.9739	5.3278	-7.0416	-8.9313	4.7519	-4.5006	-2.0443	-4.2544	-1.062	-11.5495	-4.8888	-6.4328	-13.7889	-7.0255	-4.2378	-11.4135	-2.5578	-2.7341	-0.5905	0.333	0.333	0.333	0.333	0.333	0.333	0.333	0.333	0.333	0.333	0.333	0.333	0.333	0.333	0.333	0.333	0.333	0.333	0.333	6.327	1.7273	4.2653	4	251	0.928614481562987	0	1
"252"	4	53	4	0	0	0	6	-1	1	1.752	-2.377	-2.1456	-2.969	-9.698	9.7583	-2.6135	3.2004	1.0241	-3.2323	-2.0087	-7.5484	0.9158	-7.4819	7.571	-0.2514	5.6291	4.5017	1.0678	4.7694	1.4515	0.3307	0.4082	0.2156	0.4403	0.302	0.2128	0.3757	0.2494	0.2053	0.3602	0.2607	0.4008	0.2481	0.3644	0.4062	0.457	0.2086	0.3638	0.5248	6.3347	1.5266	3.2858	4	252	0.5607579925142	0	1
"253"	4	31	4	-1	-1.21	1	15	-1	1	4.954	1.1103	6.0877	-11.9398	-6.9261	4.4618	-3.5059	-3.4375	-5.7702	0.5151	7.0489	-1.9928	0.0817	-2.3967	-2.6183	-0.1524	-9.4072	0.7206	3.0281	-2.8687	5.0143	0.333	0.333	0.333	0.333	0.333	0.333	0.333	0.333	0.333	0.333	0.333	0.333	0.333	0.333	0.333	0.333	0.333	0.333	0.333	6.327	1.7102	6.6714	4	253	1.60019533106717	0	1
"254"	4	4	4	0	0	1	10	1	1	3.16	1.9341	-3.4253	-3.1249	-0.8932	0.5393	1.0807	3.1599	-3.9478	13.4975	2.6731	5.7941	3.3606	-1.0928	-7.1616	4.4746	-5.7743	-0.6485	-4.3701	1.7939	-8.4265	0.333	0.333	0.333	0.333	0.333	0.333	0.333	0.333	0.333	0.333	0.333	0.333	0.333	0.333	0.333	0.333	0.333	0.333	0.333	6.327	1.5231	4.6775	4	254	1.15057202759882	1	0
"255"	4	12	4	1	1.21	0	9	1	1	2.861	-0.2622	4.589	3.4259	0.0265	4.57	7.1154	-0.7035	6.2052	2.6527	-0.0085	-0.7191	5.9203	3.6844	6.3671	1.0067	-10.4147	-8.1513	0.4032	-7.4025	4.54	0.307	0.3804	0.2094	0.3731	0.4138	0.2081	0.4533	0.3396	0.4914	0.3363	0.2716	0.3722	0.3239	0.2562	0.3035	0.2523	0.34	0.2019	0.49	6.324	1.5817	4.4617	4	255	1.05117121406797	1	0
"256"	4	1	4	-4	-4.84	1	6	-1	1	1.794	-6.2473	-9.7091	0.1899	1.3049	-4.3464	-3.1394	-12.7823	-3.9037	2.5005	-6.5073	-2.4185	-6.8676	-14.6162	-7.7462	-9.19	4.5951	-8.2303	-3.9834	-0.1087	-4.1193	0.333	0.333	0.333	0.333	0.333	0.333	0.333	0.333	0.333	0.333	0.333	0.333	0.333	0.333	0.333	0.333	0.333	0.333	0.333	6.327	1.4797	3.2944	4	256	0.584447763636604	0	1
"257"	4	68	4	1	1.21	0	8	1	1	2.738	-2.5986	5.0082	0.7398	2.9967	8.3501	2.2232	7.3776	-5.3913	2.9148	-4.5548	-9.9246	5.7144	1.9968	-1.999	-2.4746	3.3505	6.0483	7.5998	2.0764	-4.8455	0.5251	0.3873	0.5204	0.2398	0.3381	0.3878	0.2104	0.3408	0.3899	0.2275	0.2711	0.3063	0.207	0.5029	0.2055	0.3211	0.2946	0.3999	0.2564	6.3318	1.5808	4.3391	4	257	1.00722772686626	1	0
"258"	4	58	4	-2	-2.42	1	11	-1	1	3.488	-6.6026	-3.5181	-2.9499	-2.4118	5.8772	-4.1748	0.018	-5.1981	0.9288	-5.0135	4.0461	1.1768	8.2868	-4.8799	-9.3744	1.8759	-9.7142	-2.7927	-7.837	-6.6032	0.333	0.333	0.333	0.333	0.333	0.333	0.333	0.333	0.333	0.333	0.333	0.333	0.333	0.333	0.333	0.333	0.333	0.333	0.333	6.327	1.4496	4.9557	4	258	1.24932850604673	0	1
"259"	4	70	4	4	4.84	0	6	1	1	1.953	2.3894	4.7578	4.7114	0.841	6.338	4.1371	3.3647	-0.4515	12.4174	16.1611	7.7324	0.9332	-1.6678	12.8135	2.4731	7.2997	3.7915	-2.9706	8.1931	1.7224	0.263	0.3709	0.4143	0.3067	0.3449	0.4789	0.2331	0.4447	0.3344	0.2397	0.3239	0.4514	0.2081	0.4131	0.221	0.2744	0.3093	0.2446	0.4518	6.3283	1.5081	3.47	4	259	0.669366651894542	1	0
"260"	4	10	4	-1	-1.21	0	7	-1	1	2.36	3.0355	-1.7747	-4.6209	5.8234	-11.5748	5.3075	2.9548	-3.7527	3.6248	-4.7499	2.7193	7.6018	-4.994	-1.4571	-6.963	-0.3679	-0.1991	-2.6973	-7.7047	-2.473	0.3445	0.5225	0.4906	0.2025	0.4847	0.3037	0.2047	0.3568	0.2938	0.428	0.3976	0.2408	0.4114	0.271	0.2205	0.4715	0.2047	0.2704	0.2006	6.3203	1.5754	3.9438	4	260	0.858661619037519	0	1
"261"	4	33	4	1	1.21	1	6	1	1	1.962	1.4867	-4.6183	-1.3825	9.1432	4.5338	10.0439	-11.5848	-2.2993	3.7403	1.2405	2.0324	0.6037	0.3907	-2.534	-2.056	2.9039	3.8477	8.8108	0.8707	-1.6808	0.333	0.333	0.333	0.333	0.333	0.333	0.333	0.333	0.333	0.333	0.333	0.333	0.333	0.333	0.333	0.333	0.333	0.333	0.333	6.327	1.6471	3.6131	4	261	0.673964361143171	1	0
"262"	4	63	4	4	4.84	1	6	1	1	1.847	1.2143	12.5823	8.927	3.531	8.7272	-4.6883	3.8245	4.4121	9.3751	9.7393	-4.8747	-1.2006	4.8001	0.8288	8.0911	7.5965	-0.8988	6.8122	8.9214	8.6752	0.333	0.333	0.333	0.333	0.333	0.333	0.333	0.333	0.333	0.333	0.333	0.333	0.333	0.333	0.333	0.333	0.333	0.333	0.333	6.327	1.4067	3.264	4	262	0.613562701217103	1	0
"263"	4	3	4	-1	-1.21	1	10	-1	1	3.075	-4.5503	-4.219	11.7033	3.2174	-7.7454	2.088	-3.4356	1.6809	-7.8738	2.0739	-0.5771	4.7834	-4.1913	0.0318	0.1494	-7.6811	-0.981	-2.3777	1.0068	-7.6119	0.333	0.333	0.333	0.333	0.333	0.333	0.333	0.333	0.333	0.333	0.333	0.333	0.333	0.333	0.333	0.333	0.333	0.333	0.333	6.327	1.5247	4.6092	4	263	1.12330490125848	0	1
"264"	4	7	4	4	4.84	1	7	1	1	2.004	3.6223	12.9922	8.9494	5.0844	6.163	4.13	3.5424	11.3471	4.6849	4.6032	-2.6926	-6.6105	7.9235	7.7793	12.0235	-3.7115	3.3483	5.6056	5.8448	3.9516	0.333	0.333	0.333	0.333	0.333	0.333	0.333	0.333	0.333	0.333	0.333	0.333	0.333	0.333	0.333	0.333	0.333	0.333	0.333	6.327	1.6738	3.6886	4	264	0.695145183222618	1	0
"265"	4	32	4	0	0	1	8	-1	0	2.596	-1.8546	4.5872	2.5128	-4.0477	2.8026	-9.2006	-5.2167	0.6789	5.0917	-1.7792	0.9388	3.818	-5.4864	7.3053	0.9562	4.1133	8.6703	-3.6418	-9.2368	-1.9249	0.333	0.333	0.333	0.333	0.333	0.333	0.333	0.333	0.333	0.333	0.333	0.333	0.333	0.333	0.333	0.333	0.333	0.333	0.333	6.327	1.4501	4.0464	4	265	0.953971798841844	0	1
"266"	4	21	4	4	4.84	1	8	1	1	2.42	7.0616	7.4226	-2.45	1.1568	6.3375	4.9912	-2.5639	7.2923	0.3842	12.4873	11.7767	6.2068	-1.6157	9.5618	3.7842	12.5496	-1.2694	5.997	7.2698	-1.3063	0.333	0.333	0.333	0.333	0.333	0.333	0.333	0.333	0.333	0.333	0.333	0.333	0.333	0.333	0.333	0.333	0.333	0.333	0.333	6.327	1.4712	3.9036	4	266	0.883767540168595	1	0
"267"	4	16	4	-2	-2.42	1	11	-1	1	3.39	-1.9414	-5.0684	2.9753	-2.8862	0.5407	3.6788	-12.194	7.1593	-4.6547	-0.6088	-6.7473	4.1638	-2.9399	-2.297	-5.1871	5.1343	-4.1081	-7.2186	-6.9195	-8.0847	0.333	0.333	0.333	0.333	0.333	0.333	0.333	0.333	0.333	0.333	0.333	0.333	0.333	0.333	0.333	0.333	0.333	0.333	0.333	6.327	1.6433	5.0402	4	267	1.22082992139236	0	1
"268"	4	8	4	-4	-4.84	0	9	-1	1	2.74	-6.6489	-5.0936	-9.4668	-1.0248	4.8274	-6.3007	-8.962	-0.6605	-4.9758	2.819	-13.3669	-9.7677	-1.1798	1.1629	-6.8848	-7.2244	-12.0018	-5.1338	-6.4463	-0.4781	0.2753	0.3445	0.2496	0.3461	0.4664	0.4382	0.2221	0.3333	0.3735	0.2847	0.214	0.3598	0.2888	0.2104	0.3997	0.2797	0.5192	0.2753	0.4389	6.3194	1.4139	4.1737	4	268	1.00795792039998	0	1
"269"	4	57	4	-4	-4.84	1	10	-1	1	3.082	-2.876	0.6646	-11.5314	-3.6407	-5.2569	-12.8929	-3.96	3.773	-10.0542	-8.0002	-4.9258	-5.6656	-3.2804	1.5796	-13.4875	4.2143	-7.3939	-4.5096	-3.9108	-4.2918	0.333	0.333	0.333	0.333	0.333	0.333	0.333	0.333	0.333	0.333	0.333	0.333	0.333	0.333	0.333	0.333	0.333	0.333	0.333	6.327	1.5675	4.6661	4	269	1.12557873689792	0	1
"270"	4	66	4	-1	-1.21	0	13	1	0	4.325	3.7471	-2.3606	2.3548	-3.0376	-8.9755	-0.1629	-5.0889	-2.1532	2.4557	0.825	3.267	-0.0639	0.5498	-3.1607	-3.9749	-4.5558	-9.5214	-8.3196	11.2317	3.9304	0.488	0.2185	0.3374	0.2833	0.4049	0.2895	0.3348	0.5165	0.2947	0.5254	0.2221	0.3735	0.2	0.3641	0.317	0.2609	0.2095	0.3945	0.2991	6.3337	1.7108	6.0422	4	270	1.46441214038384	1	0
"271"	4	34	4	2	2.42	1	10	1	1	3.245	-0.226	-5.5343	1.0484	2.1105	4.4457	-3.3013	7.5061	1.3673	8.0834	-7.3511	7.2958	8.3969	1.1792	-1.5313	6.4984	5.579	5.1463	-6.2071	4.7739	7.9453	0.333	0.333	0.333	0.333	0.333	0.333	0.333	0.333	0.333	0.333	0.333	0.333	0.333	0.333	0.333	0.333	0.333	0.333	0.333	6.327	1.6261	4.8795	4	271	1.17711535015605	1	0
"272"	4	23	4	-2	-2.42	0	19	-1	1	6.309	-5.0761	-13.3262	-2.8333	-6.8763	-1.6296	1.2843	4.5077	0.3077	0.2329	-0.1347	3.5929	1.1778	-11.1088	-3.4764	-0.9106	-6.9726	0.8802	-8.302	3.8547	-2.2286	0.322	0.3571	0.3206	0.4911	0.2909	0.2331	0.4701	0.5086	0.402	0.2421	0.3138	0.2262	0.3187	0.4918	0.3295	0.2333	0.2074	0.2625	0.3143	6.335	1.6308	7.9432	4	272	1.84197718538867	0	1
"273"	4	38	4	-1	-1.21	0	9	1	0	3.019	0.6401	-6.8915	-2.1071	-1.7079	2.7635	6.0788	-2.4093	-5.6788	-1.9582	-3.4388	4.7757	-12.3927	-1.8052	2.3932	6.7515	-4.0389	-2.2165	7.715	-5.4373	-5.3177	0.3597	0.4823	0.3342	0.4516	0.2471	0.4596	0.2255	0.2952	0.2005	0.3141	0.2768	0.4045	0.2334	0.2042	0.2653	0.3307	0.361	0.5251	0.3626	6.3335	1.6796	4.7031	4	273	1.1049256507247	1	0
"274"	4	22	4	-4	-4.84	0	7	1	0	2.293	-3.8673	-6.1639	-15.1878	-4.1319	4.789	-7.1707	-0.0489	-1.0823	-12.9189	-2.016	-4.4392	-9.4696	0.3941	-10.5071	-5.6782	-3.0681	-3.4812	-4.9387	-9.0241	1.6934	0.4845	0.3418	0.2064	0.25	0.3645	0.2809	0.3887	0.2488	0.4817	0.5214	0.2353	0.2005	0.2892	0.4457	0.247	0.4131	0.3773	0.3155	0.226	6.3185	1.6036	3.8938	4	274	0.829861003875767	1	0
"275"	4	44	4	-2	-2.42	1	7	-1	1	2.312	-6.6555	0.5108	-1.8019	-7.5523	-4.9787	-11.6488	5.1679	0.6381	3.19	3.1598	-2.6074	-2.7607	5.8073	-8.0958	-4.2872	-2.8063	3.7522	-9.1832	-4.2443	-3.8654	0.333	0.333	0.333	0.333	0.333	0.333	0.333	0.333	0.333	0.333	0.333	0.333	0.333	0.333	0.333	0.333	0.333	0.333	0.333	6.327	1.5786	3.8964	4	275	0.838112950810131	0	1
"276"	4	13	4	2	2.42	0	9	1	1	2.989	0.1337	6.5867	1.4022	-1.8768	7.2153	1.0629	-4.2311	-0.5016	5.2273	1.0739	9.5666	1.994	3.9429	6.4558	10.8498	3.6719	4.6246	2.3843	-1.7351	-11.3747	0.3289	0.4802	0.2555	0.2202	0.2672	0.4473	0.3807	0.5304	0.268	0.301	0.3335	0.2517	0.293	0.2279	0.5248	0.464	0.2192	0.3212	0.2094	6.3241	1.7013	4.7069	4	276	1.0949388833018	1	0
"277"	4	30	4	-2	-2.42	1	8	1	0	2.559	-6.4488	-1.7934	-3.3405	-0.6218	3.3214	-1.0268	-2.228	2.0399	-3.8023	-17.604	0.9581	-2.557	-0.9177	-6.9794	5.0271	-4.3751	-2.2203	-5.0225	4.4027	-6.8359	0.333	0.333	0.333	0.333	0.333	0.333	0.333	0.333	0.333	0.333	0.333	0.333	0.333	0.333	0.333	0.333	0.333	0.333	0.333	6.327	1.5673	4.1434	4	277	0.939616557177652	1	0
"278"	4	35	4	4	4.84	1	7	1	1	2.102	4.6361	4.2153	6.783	10.5069	5.1229	4.8438	5.8029	2.4489	-2.1357	-6.6503	-1.6707	1.5	9.5056	3.9032	12.2151	12.3299	1.3013	3.9804	11.8622	4.3173	0.333	0.333	0.333	0.333	0.333	0.333	0.333	0.333	0.333	0.333	0.333	0.333	0.333	0.333	0.333	0.333	0.333	0.333	0.333	6.327	1.5617	3.6695	4	278	0.742889272454759	1	0
"279"	4	54	4	1	1.21	0	8	-1	0	2.629	0.7509	-5.7433	-1.7139	5.6013	-0.376	-4.2332	-1.8067	-0.2871	2.4782	-3.0929	1.13	8.849	2.5322	4.9967	1.4404	-0.3408	1.8724	13.5151	7.4272	-7.9291	0.332	0.4847	0.328	0.2485	0.5046	0.341	0.3879	0.3098	0.2696	0.3222	0.2454	0.2934	0.335	0.4911	0.3127	0.2841	0.2319	0.3733	0.2223	6.3175	1.5498	4.1965	4	279	0.966603545747744	0	1
"280"	4	39	4	0	0	0	17	-1	1	5.676	-0.3175	-0.6735	4.4441	6.2868	7.3048	-6.1402	-4.4756	-6.5051	-3.9484	-6.3905	-2.6381	-0.1631	-4.7294	10.2601	2.0429	-0.1371	5.8353	-3.1452	0.1233	2.1667	0.2847	0.2306	0.472	0.2441	0.4991	0.3074	0.2012	0.258	0.4997	0.4379	0.2562	0.4914	0.3502	0.2949	0.2287	0.3223	0.3648	0.3098	0.2816	6.3347	1.4819	7.1769	4	280	1.7362467592978	0	1
"281"	4	42	5	4	4.84	0	7	1	1	2.078	2.6819	1.7948	10.6166	14.0984	3.8395	4.4514	5.9355	8.0733	6.9026	1.4055	1.6907	14.32	-4.8033	7.0907	10.3	-0.3693	-2.627	0.9212	4.8463	5.6209	0.4714	0.3564	0.3158	0.2221	0.4638	0.2292	0.2701	0.4005	0.2529	0.324	0.2121	0.3274	0.2386	0.49	0.3119	0.3796	0.5185	0.3268	0.2198	6.331	1.4055	3.4956	4	281	0.731405892677036	1	0
