"subNo"	"index"	"block"	"level"	"mean"	"periodicity"	"nEvents"	"answer"	"isCorrect"	"rt"	"s1"	"s2"	"s3"	"s4"	"s5"	"s6"	"s7"	"s8"	"s9"	"s10"	"s11"	"s12"	"s13"	"s14"	"s15"	"s16"	"s17"	"s18"	"s19"	"s20"	"t1"	"t2"	"t3"	"t4"	"t5"	"t6"	"t7"	"t8"	"t9"	"t10"	"t11"	"t12"	"t13"	"t14"	"t15"	"t16"	"t17"	"t18"	"t19"	"seqDuration"	"startInterval"	"trialDuration"	"pID"	"Trial"	"rtLog"	"right"	"left"
"1"	13	16	1	-2	-3.03	1	10	-1	1	3.25	-0.8888	-3.8762	-5.4214	-0.0059	-4.9112	-0.2692	-9.956	-15.5039	-9.7973	-4.8814	8.8424	-0.8282	-2.0475	-1.239	-4.2021	-0.1368	0.3211	-2.6804	0.9302	-5.022	0.333	0.333	0.333	0.333	0.333	0.333	0.333	0.333	0.333	0.333	0.333	0.333	0.333	0.333	0.333	0.333	0.333	0.333	0.333	6.327	1.7092	4.9676	13	1	1.17865499634165	0	1
"2"	13	24	1	-1	-1.515	0	9	1	0	2.788	0.4619	1.7189	5.9291	-3.9431	0.2355	-1.8399	2.0161	-2.8391	-5.395	-2.9503	3.4297	-11.7268	-4.9213	-4.8978	-1.9969	-1.9028	-8.8192	-3.3013	-0.6438	10.3314	0.3762	0.5302	0.2963	0.2697	0.3088	0.2018	0.3549	0.3223	0.4498	0.2373	0.4752	0.4399	0.3654	0.3194	0.224	0.3327	0.2531	0.3367	0.241	6.3345	1.6528	4.4384	13	2	1.02532449289828	1	0
"3"	13	51	1	-2	-3.03	0	16	-1	1	5.111	-3.1285	-3.7535	-2.9818	-8.6515	-3.1471	3.0298	-10.4985	-7.1689	-12.766	-9.012	-1.6939	-1.1817	0.2082	-4.5311	6.9555	1.1771	-0.8981	4.2917	-2.7749	-3.2748	0.2216	0.5323	0.3452	0.2714	0.2965	0.4614	0.2011	0.2992	0.4409	0.219	0.4297	0.2142	0.4946	0.2883	0.2468	0.3105	0.4205	0.2157	0.4223	6.3314	1.7038	6.8287	13	3	1.63139507978614	0	1
"4"	13	30	1	-2	-3.03	1	18	-1	1	5.704	-4.8094	6.8826	0.7044	-3.8221	-7.3382	-0.6882	-2.3684	-6.7646	0.0949	-2.7065	-5.8707	0.6461	-7.0173	-5.039	8.132	-6.0077	-10.4597	-4.1707	-11.2039	0.8171	0.333	0.333	0.333	0.333	0.333	0.333	0.333	0.333	0.333	0.333	0.333	0.333	0.333	0.333	0.333	0.333	0.333	0.333	0.333	6.327	1.5418	7.255	13	4	1.74116768311199	0	1
"5"	13	14	1	4	6.06	0	10	1	1	3.309	9.742	4.4616	-6.4981	3.5287	10.1408	10.7239	8.2543	6.5261	0.6939	8.4002	14.8351	6.329	7.024	10.6854	10.9194	1.7927	1.9882	3.0683	-1.5569	9.3523	0.289	0.4902	0.389	0.2244	0.3038	0.4728	0.2603	0.3404	0.2543	0.3552	0.3924	0.4395	0.2007	0.3435	0.3069	0.2601	0.3811	0.3272	0.2929	6.3237	1.5361	4.8597	13	5	1.19664602893948	1	0
"6"	13	13	1	2	3.03	0	8	1	1	2.488	2.2459	-0.2674	10.3816	-4.3502	-2.9996	8.1143	-0.5157	3.0905	1.1233	6.3806	-1.635	3.4721	1.0158	-2.7476	6.7791	-3.3076	12.2591	9.7127	3.3874	7.5619	0.4096	0.2413	0.4923	0.3219	0.3764	0.3024	0.3407	0.5223	0.2444	0.2178	0.2602	0.2977	0.4114	0.2258	0.3012	0.4586	0.2897	0.2411	0.3658	6.3205	1.5495	4.0557	13	6	0.911479174876933	1	0
"7"	13	40	1	1	1.515	0	7	1	1	2.308	6.3468	-4.3059	2.5302	-5.8548	5.8395	7.4515	-1.7	0.4041	2.7479	-5.8768	7.5437	0.663	4.512	0.6028	-1.4199	3.0318	11.0347	5.7223	-2.289	-6.2184	0.2263	0.4705	0.2964	0.2394	0.5265	0.2245	0.4255	0.5294	0.2448	0.2044	0.3465	0.4246	0.2205	0.3199	0.2454	0.4451	0.2352	0.3644	0.3389	6.328	1.5281	3.8421	13	7	0.836381348645853	1	0
"8"	13	22	1	-4	-6.06	0	8	-1	1	2.417	-3.4715	-8.855	-8.6094	-1.9566	-10.5168	-10.2946	-8.0659	-7.3372	-1.2983	-9.1622	-6.411	-3.7697	5.3169	-0.9456	-8.4834	-13.3583	-1.7329	-2.3797	-15.3658	-2.9338	0.2619	0.3629	0.3082	0.204	0.3287	0.2697	0.3203	0.5302	0.2116	0.5313	0.2807	0.3498	0.2274	0.3299	0.4356	0.2138	0.363	0.4978	0.3008	6.3277	1.4608	3.8839	13	8	0.882527101721346	0	1
"9"	13	63	1	4	6.06	1	5	1	1	1.461	10.4746	5.9361	6.9445	-0.6524	-2.5739	10.061	-5.4655	8.919	3.5093	12.2588	5.8433	1.7646	14.271	8.9842	7.8047	8.2822	4.5569	2.6069	8.5419	9.0713	0.333	0.333	0.333	0.333	0.333	0.333	0.333	0.333	0.333	0.333	0.333	0.333	0.333	0.333	0.333	0.333	0.333	0.333	0.333	6.327	1.6072	3.0783	13	9	0.379121132768562	1	0
"10"	13	61	1	1	1.515	1	10	1	1	3.244	-3.1207	-2.5768	-4.992	6.4493	-2.7181	9.352	7.3621	-3.4256	3.8134	10.3302	3.1073	0.0111	5.1512	-4.2524	-0.0448	-5.0237	3.8196	1.877	-2.603	7.4133	0.333	0.333	0.333	0.333	0.333	0.333	0.333	0.333	0.333	0.333	0.333	0.333	0.333	0.333	0.333	0.333	0.333	0.333	0.333	6.327	1.5319	4.7785	13	10	1.17680713625317	1	0
"11"	13	70	1	4	6.06	0	11	1	1	3.426	7.5588	5.3151	4.8648	5.8948	1.0656	2.9229	13.5538	-1.9277	8.2202	5.6153	8.228	11.3453	9.4261	-0.2087	0.0983	17.5419	1.3027	4.2439	11.6683	4.7545	0.3938	0.4872	0.2205	0.2902	0.3326	0.2209	0.4855	0.205	0.2384	0.3712	0.4531	0.394	0.2407	0.201	0.4765	0.3147	0.2541	0.3337	0.416	6.3292	1.5765	5.0101	13	11	1.23139339990193	1	0
"12"	13	47	1	1	1.515	1	7	1	1	2.094	0.0808	5.9572	-4.2207	4.3179	-4.4585	4.816	1.1661	-3.9442	6.0903	6.783	-1.0033	7.5237	1.3836	-4.4252	12.4346	4.7825	-5.818	1.215	0.9297	-3.3145	0.333	0.333	0.333	0.333	0.333	0.333	0.333	0.333	0.333	0.333	0.333	0.333	0.333	0.333	0.333	0.333	0.333	0.333	0.333	6.327	1.4199	3.5111	13	12	0.739076112448345	1	0
"13"	13	33	1	1	1.515	1	12	1	1	3.921	-3.1391	-5.1851	3.1957	1.9002	2.8435	-1.0063	2.0257	7.179	4.8024	-2.849	-1.2953	-2.3716	-4.1328	-8.4387	6.6353	1.3028	7.9652	8.7505	7.9678	2.6014	0.333	0.333	0.333	0.333	0.333	0.333	0.333	0.333	0.333	0.333	0.333	0.333	0.333	0.333	0.333	0.333	0.333	0.333	0.333	6.327	1.6555	5.5883	13	13	1.36634672331019	1	0
"14"	13	53	1	0	0	0	17	1	1	5.708	-2.3944	-4.0177	4.2928	2.9633	9.983	-5.017	-4.6268	-8.8994	2.0947	5.7973	4.1189	4.6155	-0.8055	-2.6735	2.1015	4.6265	-2.9053	3.2018	-4.2373	-8.3687	0.276	0.2403	0.4665	0.3323	0.2462	0.2113	0.3485	0.435	0.4758	0.5327	0.3732	0.2162	0.2933	0.2448	0.4527	0.41	0.2037	0.3526	0.2226	6.3336	1.5623	7.2921	13	14	1.74186869961459	1	0
"15"	13	57	1	-4	-6.06	1	7	-1	1	2.315	-8.7561	1.4746	-4.73	-6.8269	-4.7972	-12.5	-6.7581	-1.1493	-7.4437	-5.1822	-9.817	-4.7947	-16.811	-0.534	-8.1883	-1.1681	3.7755	-7.3917	-8.9331	-12.2953	0.333	0.333	0.333	0.333	0.333	0.333	0.333	0.333	0.333	0.333	0.333	0.333	0.333	0.333	0.333	0.333	0.333	0.333	0.333	6.327	1.4983	3.8329	13	15	0.839409687538197	0	1
"16"	13	35	1	4	6.06	1	10	1	1	3.123	8.3056	4.5601	7.2558	-7.1913	1.5537	5.7679	6.5538	-2.9751	6.4982	7.9576	11.5019	6.226	3.429	2.0909	16.2268	7.2381	7.5057	9.9477	9.2841	8.1494	0.333	0.333	0.333	0.333	0.333	0.333	0.333	0.333	0.333	0.333	0.333	0.333	0.333	0.333	0.333	0.333	0.333	0.333	0.333	6.327	1.5278	4.6569	13	16	1.13879407830094	1	0
"17"	13	5	1	1	1.515	1	14	1	1	4.644	-0.3988	0.7088	0.8183	6.1266	2.8428	4.0635	5.7625	-6.2677	-1.338	3.2868	-1.0062	9.8398	-7.2819	4.8726	9.745	0.3262	5.2782	-2.8294	2.3632	-7.3375	0.333	0.333	0.333	0.333	0.333	0.333	0.333	0.333	0.333	0.333	0.333	0.333	0.333	0.333	0.333	0.333	0.333	0.333	0.333	6.327	1.4355	6.0951	13	17	1.53557606383565	1	0
"18"	13	68	1	1	1.515	0	17	-1	0	5.382	3.9781	0.5674	2.6245	1.2919	12.5379	-3.3378	-2.8301	2.1905	-2.2428	-3.381	-6.2916	8.7328	1.3334	-2.6263	-1.5346	-0.3612	-0.5233	8.6706	1.8315	8.9404	0.4787	0.378	0.2434	0.2761	0.5062	0.2809	0.4115	0.2102	0.3002	0.4555	0.2274	0.3221	0.3622	0.2334	0.206	0.4693	0.3636	0.3179	0.2821	6.3247	1.5702	6.9658	13	18	1.68306005230471	0	1
"19"	13	31	1	-1	-1.515	1	13	-1	1	4.041	-6.2565	8.466	-4.3692	-3.787	-5.8137	7.004	1.4633	-7.7879	-3.8942	0.5118	-10.9933	-1.0121	0.1796	-0.8121	-0.8012	3.6361	3.5517	2.0619	-4.9253	-4.9751	0.333	0.333	0.333	0.333	0.333	0.333	0.333	0.333	0.333	0.333	0.333	0.333	0.333	0.333	0.333	0.333	0.333	0.333	0.333	6.327	1.624	5.6754	13	19	1.39649218609634	0	1
"20"	13	21	1	4	6.06	1	5	1	1	1.499	4.71	5.9144	20.7699	11.8045	-0.8948	9.2439	4.5753	4.2159	8.1012	-0.0376	-0.9476	8.9644	9.6497	8.4366	3.8992	8.6339	3.7741	4.969	0.4083	6.6397	0.333	0.333	0.333	0.333	0.333	0.333	0.333	0.333	0.333	0.333	0.333	0.333	0.333	0.333	0.333	0.333	0.333	0.333	0.333	6.327	1.6092	3.1162	13	20	0.404798219120461	1	0
"21"	13	25	1	0	0	0	18	-1	1	5.743	-0.6993	-1.2327	4.8873	-2.7919	-4.1595	0.9754	1.8953	2.2798	-3.6075	-8.1485	2.7094	1.911	-5.0752	5.1748	-10.0688	-0.1344	2.5281	11.929	-2.9439	5.2379	0.3447	0.3715	0.4307	0.2902	0.3349	0.2997	0.2079	0.5039	0.3092	0.3534	0.2878	0.4042	0.3142	0.2013	0.2758	0.2468	0.5106	0.3102	0.3369	6.3338	1.5254	7.2774	13	21	1.74798172188216	0	1
"22"	13	45	1	-1	-1.515	1	6	-1	1	1.777	-5.1773	-1.9771	-7.4475	-3.1105	-1.2323	-12.8341	-7.3641	-1.8149	4.2099	-6.3744	-1.1454	2.8058	1.2782	3.9601	-1.683	-6.8578	3.4647	1.5708	7.1122	2.5575	0.333	0.333	0.333	0.333	0.333	0.333	0.333	0.333	0.333	0.333	0.333	0.333	0.333	0.333	0.333	0.333	0.333	0.333	0.333	6.327	1.4194	3.211	13	22	0.574926549172514	0	1
"23"	13	39	1	0	0	0	14	-1	1	4.655	4.146	4.2819	5.3652	-2.3069	-0.0756	4.1542	-7.0005	-3.328	-3.6472	6.444	0.4154	-0.8781	-8.5771	2.0516	6.5419	6.047	-0.9091	-0.6326	-9.1357	-4.6683	0.4756	0.2088	0.4948	0.2229	0.3962	0.2315	0.2676	0.2002	0.2891	0.4281	0.4017	0.2564	0.5229	0.3428	0.2096	0.3173	0.3777	0.479	0.2073	6.3293	1.6636	6.3394	13	23	1.53794191072903	0	1
"24"	13	37	1	-2	-3.03	0	12	-1	1	3.855	-0.5558	-4.9605	-8.2069	2.6636	-11.9847	5.5415	-6.5485	-2.7148	-2.8941	-7.6836	1.1848	-0.7515	-1.4398	-10.1458	-3.9743	-4.0558	2.1717	-1.9455	-10.6981	4.7142	0.5251	0.3285	0.3786	0.261	0.406	0.2178	0.3496	0.4646	0.2884	0.3332	0.2829	0.3338	0.2275	0.5013	0.2222	0.367	0.2598	0.3231	0.2615	6.332	1.715	5.5891	13	24	1.34937100701529	0	1
"25"	13	69	1	2	3.03	0	12	1	1	3.784	6.766	1.6902	-4.1262	0.9503	4.3077	0.0717	0.0063	16.2722	5.1233	2.8966	5.2641	2.0882	0.9804	-5.131	6.7191	6.9936	6.6606	6.6002	2.1252	-4.964	0.5255	0.249	0.2118	0.4341	0.2338	0.3139	0.3877	0.3523	0.2994	0.2363	0.3319	0.4154	0.3232	0.2297	0.3447	0.4876	0.3199	0.4115	0.2219	6.3296	1.4225	5.2185	13	25	1.33078165118963	1	0
"26"	13	29	1	-4	-6.06	1	7	-1	1	2.211	-5.6727	0.5721	-3.8898	-0.4045	-2.781	-10.9399	-8.9029	-9.6727	-0.7116	-2.2936	-13.6986	-14.4831	-9.1239	-8.8404	1.6082	-6.0861	-0.2982	-8.2176	-4.9143	-13.7483	0.333	0.333	0.333	0.333	0.333	0.333	0.333	0.333	0.333	0.333	0.333	0.333	0.333	0.333	0.333	0.333	0.333	0.333	0.333	6.327	1.4946	3.7121	13	26	0.793444901875309	0	1
"27"	13	7	1	4	6.06	1	7	1	1	2.18	3.1512	6.1101	1.0188	-0.0463	4.4189	3.2909	8.6963	8.4344	3.2113	-1.0217	9.327	13.6021	2.1174	5.809	10.4803	5.4314	-0.3501	16.5533	8.2794	13.267	0.333	0.333	0.333	0.333	0.333	0.333	0.333	0.333	0.333	0.333	0.333	0.333	0.333	0.333	0.333	0.333	0.333	0.333	0.333	6.327	1.4232	3.6144	13	27	0.779324876800998	1	0
"28"	13	9	1	-2	-3.03	0	10	-1	1	3.126	-2.2451	1.283	-9.7371	-0.0111	-11.5697	1.1695	1.6275	-9.5689	-11.6576	0.7892	-7.8598	-7.5998	-6.083	0.7325	-3.7313	1.2296	0.2072	0.3558	-1.0622	4.4655	0.3194	0.3617	0.4496	0.2577	0.4684	0.2486	0.4076	0.2527	0.2975	0.5156	0.2898	0.3322	0.2342	0.2941	0.2595	0.3772	0.4295	0.3111	0.224	6.3304	1.6178	4.7438	13	28	1.13975423199928	0	1
"29"	13	65	1	-2	-3.03	0	15	-1	1	5.16	-0.4629	-11.3511	-3.9541	0.4736	-5.3744	-2.474	-2.3559	-1.3458	-3.614	-10.9217	-3.7232	2.27	-9.059	0.3847	4.6792	-1.4484	2.5404	-14.1587	0.1334	0.8032	0.3378	0.3907	0.4684	0.2581	0.2181	0.4516	0.3164	0.4409	0.2305	0.5164	0.2475	0.3654	0.5326	0.2047	0.2776	0.202	0.2986	0.241	0.3208	6.3192	1.6019	6.7611	13	29	1.64093657949347	0	1
"30"	13	8	1	-4	-6.06	0	5	-1	1	1.657	-6.7957	-12.7172	-10.4352	-7.2437	-4.7989	-2.8181	1.7096	-8.5075	-4.803	-9.9565	-15.9322	-9.3935	-5.7057	-1.2475	-6.3342	-2.5914	-10.934	-8.0855	4.9822	-0.1578	0.4648	0.2492	0.4199	0.2101	0.3484	0.237	0.4046	0.2001	0.3681	0.2615	0.4396	0.5179	0.2306	0.2713	0.3221	0.287	0.4237	0.3902	0.2814	6.3273	1.5967	3.2577	13	30	0.505008738444426	0	1
"31"	13	67	1	0	0	0	17	1	0	5.262	-1.6403	1.0277	-2.7341	-2.1672	10.1561	-7.0227	3.2851	2.1235	-0.4037	-1.496	-7.5057	-1.3278	9.6203	1.0948	-8.3287	-5.5136	1.2138	2.67	5.667	0.0233	0.2533	0.4055	0.4453	0.3494	0.2655	0.2353	0.3217	0.2414	0.2763	0.245	0.4278	0.5227	0.2589	0.2064	0.5081	0.2837	0.3623	0.4264	0.2851	6.3202	1.517	6.7795	13	31	1.6605111826181	1	0
"32"	13	46	1	0	0	1	5	1	0	1.516	4.7386	7.377	-1.7616	0.9104	1.519	9.7455	2.7548	-1.6717	-0.0389	-4.1567	8.7426	-1.5992	-1.8838	-4.0339	-10.7455	0.4239	-1.6556	-7.1421	-2.4292	0.8618	0.333	0.333	0.333	0.333	0.333	0.333	0.333	0.333	0.333	0.333	0.333	0.333	0.333	0.333	0.333	0.333	0.333	0.333	0.333	6.327	1.4792	3.0171	13	32	0.41607528722018	1	0
"33"	13	55	1	2	3.03	0	14	1	1	4.625	7.1081	3.4277	2.4715	0.1966	-0.6088	-5.9259	9.8864	4.7385	1.4237	-1.4088	-1.8561	10.507	1.7845	6.6369	4.4615	-6.2423	12.3329	5.7494	3.7758	3.5742	0.2883	0.2086	0.4155	0.2237	0.5195	0.3171	0.5299	0.279	0.4413	0.2765	0.215	0.4443	0.2057	0.3927	0.2226	0.3501	0.408	0.3168	0.2789	6.3334	1.5353	6.1758	13	33	1.53147637096439	1	0
"34"	13	23	1	-2	-3.03	0	20	-1	1	7.271	-3.1439	-0.8122	-1.6583	-1.1834	5.0771	-3.4651	-6.9672	-1.418	-5.6299	-1.9084	6.3828	-7.9312	-13.9236	-10.3658	-8.0164	-3.4695	-3.2838	4.176	-5.5186	0.7394	0.4739	0.2006	0.4518	0.4261	0.2675	0.3107	0.3671	0.2762	0.3594	0.2502	0.2051	0.3629	0.3147	0.2673	0.332	0.4119	0.2724	0.333	0.4509	6.3337	1.6621	8.9382	13	34	1.98389383366792	0	1
"35"	13	54	1	1	1.515	0	14	1	1	4.841	3.5374	6.5115	2.1542	-4.3112	-1.4117	1.2895	0.7359	9.2179	6.2045	1.1263	-0.9885	-0.9379	5.0879	7.1885	-3.2264	-3.7283	-8.559	1.618	-3.0265	11.6088	0.2771	0.2386	0.5278	0.2846	0.3805	0.4898	0.2799	0.2252	0.3521	0.3054	0.5247	0.2022	0.4476	0.3427	0.2198	0.282	0.3775	0.2089	0.3571	6.3235	1.4835	6.3421	13	35	1.57712131095756	1	0
"36"	13	1	1	-4	-6.06	1	6	-1	1	1.921	-10.9793	6.6434	-6.589	-4.7932	-10.6443	-6.4051	-3.5809	-6.8655	-5.8183	-10.8748	-8.0996	-4.1428	-14.3913	-6.9433	2.9776	-9.7462	-6.2754	0.9794	-6.1717	-11.1865	0.333	0.333	0.333	0.333	0.333	0.333	0.333	0.333	0.333	0.333	0.333	0.333	0.333	0.333	0.333	0.333	0.333	0.333	0.333	6.327	1.5843	3.5055	13	36	0.65284588378642	0	1
"37"	13	11	1	0	0	0	20	1	1	6.348	-1.7442	-3.5583	1.0545	-5.0839	-1.2428	-1.3945	-7.7814	1.8572	7.7858	-7.8401	6.2993	-2.2995	5.9483	2.7401	-5.9738	7.8351	1.9768	6.9063	0.2614	-4.4925	0.3101	0.2763	0.2068	0.351	0.4818	0.3699	0.2776	0.4942	0.229	0.2751	0.3725	0.4931	0.3567	0.2902	0.3513	0.2023	0.2312	0.3263	0.4353	6.3307	1.7025	8.0485	13	37	1.84813980266416	1	0
"38"	13	58	1	-2	-3.03	1	8	-1	1	2.392	-0.3704	-6.394	-0.1183	-5.8979	-6.1919	-6.3549	-9.6912	6.3127	3.5232	-1.8696	1.3941	-3.7865	1.3719	-4.8034	0.2838	-16.3827	-1.2705	-4.7693	-6.4154	-0.9189	0.333	0.333	0.333	0.333	0.333	0.333	0.333	0.333	0.333	0.333	0.333	0.333	0.333	0.333	0.333	0.333	0.333	0.333	0.333	6.327	1.6389	4.0261	13	38	0.872129836088385	0	1
"39"	13	17	1	-1	-1.515	1	20	-1	1	7.393	-5.2841	-0.2706	4.1299	0.591	-7.3301	3.6548	-3.6783	-1.2019	7.3422	-3.5728	-8.9126	4.3795	-3.8304	4.3508	-6.6664	-0.3546	-1.3219	2.4279	-11.0377	-5.3276	0.333	0.333	0.333	0.333	0.333	0.333	0.333	0.333	0.333	0.333	0.333	0.333	0.333	0.333	0.333	0.333	0.333	0.333	0.333	6.327	1.69	9.0775	13	39	2.00053360657496	0	1
"40"	13	59	1	-1	-1.515	1	14	1	0	4.577	0.2283	-2.6821	4.1335	0.9883	3.343	-2.9179	-10.0835	1.1013	4.9363	-11.1787	-3.5784	-1.7907	2.3913	-7.7037	-8.051	-1.337	-0.7402	7.2984	-4.952	-0.0394	0.333	0.333	0.333	0.333	0.333	0.333	0.333	0.333	0.333	0.333	0.333	0.333	0.333	0.333	0.333	0.333	0.333	0.333	0.333	6.327	1.6055	6.1946	13	40	1.52104376167151	1	0
"41"	13	12	1	1	1.515	0	20	1	1	7.704	-2.5412	-0.2972	-3.3153	-8.0604	-1.3318	4.4742	-1.5369	3.7429	11.4434	2.9094	-0.8133	6.8864	-2.7524	-0.7402	9.1156	10.6261	-0.3205	2.6714	-2.7658	1.3809	0.3729	0.3994	0.2313	0.3335	0.2303	0.3016	0.208	0.2336	0.4704	0.3486	0.2229	0.2566	0.2211	0.4856	0.4044	0.3533	0.4137	0.3156	0.531	6.3339	1.436	9.1546	13	41	2.04173967449582	1	0
"42"	13	48	1	2	3.03	1	10	1	1	3.005	3.3952	0.4629	15.26	-2.0734	3.2524	2.8887	2.9984	-0.3622	9.956	4.8224	-2.4935	6.5253	5.704	6.7581	6.1497	0.0437	-6.3262	7.0438	-3.7125	2.2453	0.333	0.333	0.333	0.333	0.333	0.333	0.333	0.333	0.333	0.333	0.333	0.333	0.333	0.333	0.333	0.333	0.333	0.333	0.333	6.327	1.5065	4.5221	13	42	1.10027756798717	1	0
"43"	13	52	1	-1	-1.515	0	12	1	0	3.292	-1.05	-5.1671	-4.6929	3.3041	-2.893	3.0222	1.3	-3.3186	2.266	5.059	5.9869	1.5406	-2.6673	-8.3903	-6.5567	3.2755	-0.7916	-12.2553	0.238	-8.9347	0.4105	0.2648	0.2229	0.2795	0.3515	0.22	0.2685	0.3198	0.2946	0.2069	0.243	0.5271	0.2138	0.4982	0.3152	0.4664	0.38	0.3228	0.5136	6.3192	1.568	4.8765	13	43	1.19149528281482	1	0
"44"	13	62	1	2	3.03	1	9	1	1	2.92	0.0798	4.4506	5.1018	5.1126	1.4619	-4.5674	2.2489	0.776	4.0095	7.6816	7.8736	-2.6958	10.2911	12.6993	0.8383	7.5562	-3.0987	5.3547	2.8834	-6.1709	0.333	0.333	0.333	0.333	0.333	0.333	0.333	0.333	0.333	0.333	0.333	0.333	0.333	0.333	0.333	0.333	0.333	0.333	0.333	6.327	1.6902	4.6204	13	44	1.07158361628019	1	0
"45"	13	3	1	-1	-1.515	1	20	-1	1	6.944	-1.7298	2.6299	-7.6458	3.139	-7.8661	-2.7738	-2.7619	4.6721	1.0281	0.3116	-7.306	1.7413	-1.547	4.4247	-11.2289	7.4406	-3.3337	-6.8835	0.969	-4.7352	0.333	0.333	0.333	0.333	0.333	0.333	0.333	0.333	0.333	0.333	0.333	0.333	0.333	0.333	0.333	0.333	0.333	0.333	0.333	6.327	1.5388	8.4943	13	45	1.93787797735805	0	1
"46"	13	50	1	-4	-6.06	0	5	-1	1	1.637	-3.9598	-15.5959	-12.0029	3e-04	-7.1858	-2.5115	-11.9073	-5.2163	-2.6606	-11.8355	2.0159	-9.7325	2.754	-4.1941	-3.1437	-4.0438	-8.941	-5.654	-10.098	-8.4753	0.2301	0.299	0.2716	0.5293	0.4526	0.4891	0.2329	0.3919	0.2586	0.3665	0.2775	0.2385	0.4858	0.3348	0.2421	0.3799	0.2848	0.2102	0.3501	6.3254	1.6869	3.3215	13	46	0.492865298388998	0	1
"47"	13	28	1	4	6.06	0	7	1	1	2.089	9.9108	4.8409	6.975	3.4711	11.4407	-0.0859	0.8331	-5.5425	12.5046	3.642	4.6102	6.7212	8.2205	13.0532	9.9688	10.268	-1.4399	7.7622	11.3251	4.1914	0.1998	0.2486	0.4331	0.2682	0.3395	0.2739	0.482	0.3183	0.3714	0.3314	0.2668	0.4156	0.3682	0.4717	0.2959	0.2187	0.3248	0.4536	0.2441	6.3256	1.5238	3.6233	13	47	0.736685482574429	1	0
"48"	13	2	1	-2	-3.03	1	12	-1	1	3.679	-0.533	5.6762	-10.7868	-4.3273	-0.9848	-4.6678	-6.4973	-10.9371	-6.9071	-5.2417	0.5248	5.1905	-3.3803	-6.1812	0.7628	0.7374	-0.5391	-11.0025	2.9522	-4.0932	0.333	0.333	0.333	0.333	0.333	0.333	0.333	0.333	0.333	0.333	0.333	0.333	0.333	0.333	0.333	0.333	0.333	0.333	0.333	6.327	1.6118	5.2964	13	48	1.30264097612264	0	1
"49"	13	34	1	2	3.03	1	10	1	1	3.097	6.8042	3.9119	-5.5411	1.2396	7.009	3.3277	4.3699	11.0025	0.2921	3.9929	1.4627	0.8713	2.0201	12.8778	10.4439	-0.1436	0.9465	-6.736	0.4002	0.237	0.333	0.333	0.333	0.333	0.333	0.333	0.333	0.333	0.333	0.333	0.333	0.333	0.333	0.333	0.333	0.333	0.333	0.333	0.333	6.327	1.4962	4.6143	13	49	1.13043390099107	1	0
"50"	13	56	1	4	6.06	0	9	1	1	2.914	8.2029	-3.5208	6.3227	6.9594	6.8791	7.4187	11.5134	13.0402	10.8841	4.402	0.2344	0.0324	4.2625	4.0436	16.3879	1.8246	-0.6055	8.1676	7.4797	8.4862	0.5162	0.2345	0.306	0.2612	0.5023	0.3322	0.3032	0.4107	0.3646	0.2733	0.4636	0.2464	0.2793	0.2067	0.4356	0.4857	0.2058	0.2846	0.222	6.334	1.5602	4.4811	13	50	1.06952670777301	1	0
"51"	13	36	1	-4	-6.06	0	6	-1	1	2.034	-7.5646	1.9259	-13.3404	0.56	-13.6563	-5.6584	-1.6849	-11.5624	-2.1141	-2.9106	-2.9034	-9.6735	-9.408	-12.4557	-1.7321	-10.3211	-3.4522	-10.1703	0.2327	-5.99	0.3123	0.2855	0.3836	0.342	0.2699	0.4766	0.2116	0.3473	0.4684	0.3057	0.2453	0.4224	0.211	0.5112	0.2088	0.2577	0.5312	0.2071	0.3373	6.3346	1.5848	3.6351	13	51	0.710004297626368	0	1
"52"	13	60	1	0	0	1	11	-1	1	3.446	4.1567	1.7014	-5.1741	-3.4451	4.1944	-7.1751	-3.781	-6.0492	-1.0649	-5.6682	0.8809	1.7932	2.2436	10.2731	-2.0692	1.8297	-7.3435	3.494	7.7427	2.0828	0.333	0.333	0.333	0.333	0.333	0.333	0.333	0.333	0.333	0.333	0.333	0.333	0.333	0.333	0.333	0.333	0.333	0.333	0.333	6.327	1.5124	4.9633	13	52	1.23721413810574	0	1
"53"	13	26	1	1	1.515	0	14	1	1	4.24	4.3135	-1.3161	2.4257	5.372	-2.1116	-5.7368	4.5577	7.2971	-1.3612	-2.2657	-0.479	11.1916	-1.5748	-4.789	1.698	-4.1012	5.7787	10.8294	4.4886	-4.1335	0.3083	0.485	0.2434	0.3835	0.2943	0.41	0.4394	0.3004	0.2163	0.2851	0.211	0.4611	0.2008	0.2967	0.3832	0.3121	0.5098	0.2577	0.3313	6.3292	1.7168	5.9737	13	53	1.44456326924387	1	0
"54"	13	66	1	-1	-1.515	0	7	1	0	1.97	1.217	7.1265	5.171	0.9078	-0.5055	4.163	-1.7976	-8.3125	-1.7754	-0.8844	-8.9963	-9.5885	-5.2122	-2.6805	2.8526	-7.4325	3.4489	-2.342	-5.9445	1.7444	0.2771	0.2047	0.4611	0.4359	0.2363	0.2053	0.2855	0.4193	0.3111	0.2168	0.2616	0.4478	0.3637	0.3246	0.4208	0.5256	0.2306	0.2653	0.4329	6.3259	1.5028	3.4875	13	54	0.678033542749897	1	0
"55"	13	19	1	1	1.515	1	20	1	1	7.253	2.0535	-0.7122	8.775	-0.1289	8.9143	-3.8501	-1.4262	5.9536	4.6215	3.3154	-2.2733	-4.7775	3.9403	3.2637	3.1651	-1.3898	-8.559	11.9172	-0.6261	-1.951	0.333	0.333	0.333	0.333	0.333	0.333	0.333	0.333	0.333	0.333	0.333	0.333	0.333	0.333	0.333	0.333	0.333	0.333	0.333	6.327	1.7322	8.987	13	55	1.98141517638128	1	0
"56"	13	41	1	2	3.03	0	14	1	1	4.376	5.5812	0.3412	6.3291	0.8452	-1.0624	-9.9979	3.9659	1.5363	-2.2282	8.0927	4.0861	4.9626	12.8434	7.669	1.6921	-1.1151	7.912	7.9914	0.1132	-0.1216	0.2235	0.3992	0.4657	0.2254	0.3127	0.2627	0.2303	0.456	0.2066	0.2424	0.2843	0.5157	0.4254	0.335	0.4391	0.2127	0.3566	0.3922	0.3372	6.3228	1.6961	6.077	13	56	1.47613506511968	1	0
"57"	13	42	1	4	6.06	0	5	1	1	1.311	9.2658	13.0375	9.8149	8.6771	7.4764	9.8011	2.835	1.7968	4.314	3.436	5.4582	7.5861	9.7497	18.3632	-2.2172	-2.2762	1.1792	4.0277	5.286	4.9452	0.3162	0.2747	0.3237	0.3629	0.5221	0.2698	0.3756	0.3477	0.2068	0.3512	0.447	0.3241	0.259	0.4643	0.2716	0.2405	0.3168	0.3909	0.2545	6.3192	1.5401	2.8451	13	57	0.270790204781563	1	0
"58"	13	44	1	-2	-3.03	1	6	-1	1	1.984	-6.7793	-2.1475	-0.3074	-3.773	-6.1272	0.9205	2.9043	-7.4878	-3.2555	2.3716	0.9044	2.4452	1.1651	-4.9484	0.2296	-4.7823	-18.5556	-0.843	-8.5566	-3.6812	0.333	0.333	0.333	0.333	0.333	0.333	0.333	0.333	0.333	0.333	0.333	0.333	0.333	0.333	0.333	0.333	0.333	0.333	0.333	6.327	1.6141	3.6177	13	58	0.685115008862681	0	1
"59"	13	49	1	4	6.06	1	10	1	1	3.256	9.2887	0.5827	2.0634	9.1504	-4.9816	7.2299	-2.1682	8.7725	7.6667	5.7245	5.1393	11.9189	3.2283	6.9749	16.7776	4.2886	9.3482	2.6363	11.1008	4.6727	0.333	0.333	0.333	0.333	0.333	0.333	0.333	0.333	0.333	0.333	0.333	0.333	0.333	0.333	0.333	0.333	0.333	0.333	0.333	6.327	1.5447	4.8235	13	59	1.18049944814029	1	0
"60"	13	43	1	-4	-6.06	1	5	-1	1	1.649	-4.3508	-7.8729	-0.0367	-6.2396	-10.5236	-9.3679	-4.1404	0.6704	-11.5608	1.4023	-1.1349	0.4142	-12.2019	-9.919	-6.0426	-5.4454	0.3064	-9.8396	-13.5328	-11.3489	0.333	0.333	0.333	0.333	0.333	0.333	0.333	0.333	0.333	0.333	0.333	0.333	0.333	0.333	0.333	0.333	0.333	0.333	0.333	6.327	1.4132	3.0827	13	60	0.500169043577462	0	1
"61"	13	15	1	-4	-6.06	1	13	-1	1	4.126	-4.2638	-5.5059	-6.8245	-1.2206	-0.1541	-0.0981	-4.1613	-3.2197	-2.0511	-10.6736	-4.522	-10.7594	-6.007	2.8795	-11.7962	-8.7631	-18.2345	-9.702	-10.3989	-6.9138	0.333	0.333	0.333	0.333	0.333	0.333	0.333	0.333	0.333	0.333	0.333	0.333	0.333	0.333	0.333	0.333	0.333	0.333	0.333	6.327	1.4942	5.6268	13	61	1.41730841464906	0	1
"62"	13	38	1	-1	-1.515	0	17	-1	1	5.475	-1.1258	1.9343	-5.5083	-4.9595	-3.9802	7.6325	1.9844	-0.2838	-11.7813	-8.8783	-0.6671	-0.5198	-1.8323	5.9404	-7.3751	1.553	5.4407	-4.2101	-2.5593	-1.5329	0.5022	0.2543	0.2843	0.2021	0.3205	0.3828	0.2245	0.3139	0.3742	0.2752	0.2093	0.3492	0.4954	0.4376	0.289	0.5033	0.2621	0.3788	0.2733	6.3321	1.437	6.9258	13	62	1.70019227570256	0	1
"63"	13	6	1	2	3.03	1	10	1	1	3.323	1.9281	2.0367	6.6449	5.7576	-5.9959	4.9936	0.258	4.8119	1.1386	9.3449	11.1107	-10.7247	1.0034	4.7733	4.4383	6.0671	4.7696	-1.8659	3.6952	4.5256	0.333	0.333	0.333	0.333	0.333	0.333	0.333	0.333	0.333	0.333	0.333	0.333	0.333	0.333	0.333	0.333	0.333	0.333	0.333	6.327	1.4041	4.7406	13	63	1.20086798937246	1	0
"64"	13	64	1	-4	-6.06	0	16	-1	1	5.102	-5.9485	2.9522	-9.8155	-4.4576	-6.8364	-6.1503	6.5632	-12.9251	-5.127	-4.0434	-6.2759	-12.3913	-8.4181	-5.2783	-12.1283	-2.873	-9.0221	-9.3449	0.1908	-10.4394	0.4446	0.2011	0.3701	0.5065	0.2291	0.3477	0.3859	0.3173	0.3859	0.3197	0.23	0.3179	0.2461	0.2042	0.3294	0.3827	0.4766	0.4139	0.2264	6.3349	1.6598	6.77	13	64	1.62963261971962	0	1
"65"	13	32	1	0	0	1	13	1	1	4.136	-3.8075	-4.6416	1.1826	0.3363	-3.5089	2.7196	-5.5505	0.3773	9.1615	3.9543	-1.4563	5.6837	-7.7011	2.4284	9.3096	-0.144	-4.7224	-7.3913	4.3669	1.232	0.333	0.333	0.333	0.333	0.333	0.333	0.333	0.333	0.333	0.333	0.333	0.333	0.333	0.333	0.333	0.333	0.333	0.333	0.333	6.327	1.5707	5.7038	13	65	1.41972913720613	1	0
"66"	13	4	1	0	0	1	20	1	0	6.655	-2.1425	-3.9165	0.286	2.4357	-10.9952	-3.6773	10.1157	-5.0656	-1.8305	3.5284	-0.3418	-1.3276	-5.2264	3.5857	0.1247	-3.7361	8.1549	5.0341	-0.3369	3.5029	0.333	0.333	0.333	0.333	0.333	0.333	0.333	0.333	0.333	0.333	0.333	0.333	0.333	0.333	0.333	0.333	0.333	0.333	0.333	6.327	1.4165	8.0724	13	66	1.89536845184708	1	0
"67"	13	20	1	2	3.03	1	20	1	1	7.055	5.1633	0.1327	7.025	3.4716	6.1946	3.4738	5.6706	1.1177	4.65	5.8106	1.5156	7.4836	-2.5704	-2.4629	-4.8004	-7.2867	14.043	0.8313	7.4997	4.3997	0.333	0.333	0.333	0.333	0.333	0.333	0.333	0.333	0.333	0.333	0.333	0.333	0.333	0.333	0.333	0.333	0.333	0.333	0.333	6.327	1.4107	8.4889	13	67	1.95373658530478	1	0
"68"	13	27	1	2	3.03	0	20	1	1	6.894	5.3325	8.9878	-3.2983	4.1517	-2.8367	-3.0044	-5.7172	5.7815	-0.6899	10.04	7.2331	0.3195	10.7556	4.9943	-3.1998	8.4242	5.1697	-1.0123	5.8567	4.7867	0.3498	0.2788	0.3848	0.2379	0.4389	0.2689	0.3583	0.2232	0.3071	0.4681	0.512	0.3581	0.227	0.2797	0.3293	0.2408	0.2659	0.5085	0.2833	6.3204	1.5172	8.4283	13	68	1.93065146809467	1	0
"69"	13	10	1	-1	-1.515	0	18	-1	1	5.894	-5.211	-3.4391	7.2922	-1.3409	2.4476	-2.3582	-9.2783	2.5713	1.6093	6.8982	-7.6759	0.2036	-2.1133	-6.0619	-8.4944	-6.9666	4.5953	-3.9916	0.4941	0.5477	0.28	0.3409	0.311	0.4485	0.3938	0.2048	0.3607	0.2489	0.2923	0.334	0.3809	0.219	0.5103	0.2096	0.3512	0.2706	0.2284	0.5164	0.4278	6.3291	1.4717	7.3777	13	69	1.7739348843155	0	1
"70"	13	18	1	0	0	1	13	-1	0	4.194	-4.3103	11.415	1.5127	4.589	-1.4674	0.3164	-2.2937	3.3007	-1.8922	-3.1929	-3.4102	4.8478	3.1696	0.2545	-12.5669	-0.0697	1.1503	-5.0909	6.5252	-0.7951	0.333	0.333	0.333	0.333	0.333	0.333	0.333	0.333	0.333	0.333	0.333	0.333	0.333	0.333	0.333	0.333	0.333	0.333	0.333	6.327	1.7045	5.9119	13	70	1.43365493247973	0	1
"71"	13	43	2	-4	-4.8	1	15	-1	1	4.783	-2.6001	-4.5431	-13.1962	-2.1148	-2.6728	-9.9245	-7.2836	-1.0169	-4.8391	-5.9939	-9.5361	1.2352	-3.0127	-5.0708	-4.4404	-5.134	8.3845	-13.9296	-7.7315	-3.1405	0.333	0.333	0.333	0.333	0.333	0.333	0.333	0.333	0.333	0.333	0.333	0.333	0.333	0.333	0.333	0.333	0.333	0.333	0.333	6.327	1.5234	6.3174	13	71	1.56506796469816	0	1
"72"	13	11	2	0	0	0	10	1	0	3.319	-1.6222	-7.9971	7.845	4.843	2.8267	2.7024	-4.3476	0.2331	-9.4002	-7.7693	2.4763	-0.4497	2.4571	6.4148	-1.6336	-2.1386	-5.0645	5.6846	4.1407	2.3334	0.2648	0.4281	0.5044	0.3712	0.2078	0.3607	0.4037	0.3209	0.2477	0.3199	0.2426	0.3517	0.3813	0.2067	0.4331	0.4046	0.2427	0.217	0.4251	6.3341	1.5572	4.8866	13	72	1.19966353273784	1	0
"73"	13	15	2	-4	-4.8	1	12	-1	1	3.883	-3.8633	-5.2374	-1.9787	-4.9977	-10.6487	-7.5281	-11.7047	-5.3884	-3.5966	-12.4699	-10.9318	-1.9025	-4.4031	9.9746	-6.9991	-7.8966	1.4566	-1.68	-4.8257	-2.7518	0.333	0.333	0.333	0.333	0.333	0.333	0.333	0.333	0.333	0.333	0.333	0.333	0.333	0.333	0.333	0.333	0.333	0.333	0.333	6.327	1.5464	5.4502	13	73	1.35660805074953	0	1
"74"	13	7	2	4	4.8	1	6	1	1	1.945	8.0237	5.1642	2.3506	-0.8589	3.8714	10.2714	7.0881	15.6478	1.9053	4.2919	-3.7946	9.7126	-6.9338	7.5837	6.4692	3.5394	2.3685	3.472	7.4795	7.2727	0.333	0.333	0.333	0.333	0.333	0.333	0.333	0.333	0.333	0.333	0.333	0.333	0.333	0.333	0.333	0.333	0.333	0.333	0.333	6.327	1.6127	3.5623	13	74	0.66526197707041	1	0
"75"	13	60	2	0	0	1	8	1	1	2.547	-1.4731	1.4007	4.6568	3.3938	5.5925	-7.7073	5.8068	4.5792	-5.3337	-3.8718	4.2646	-4.667	-5.4653	3.519	6.5518	5.9401	-3.859	-6.0726	-3.3926	-3.8529	0.333	0.333	0.333	0.333	0.333	0.333	0.333	0.333	0.333	0.333	0.333	0.333	0.333	0.333	0.333	0.333	0.333	0.333	0.333	6.327	1.6085	4.1641	13	75	0.93491619599732	1	0
"76"	13	6	2	2	2.4	1	12	1	1	3.894	3.3091	-8.824	6.9137	3.8961	4.7677	3.1282	6.7719	3.1702	5.9748	-2.0816	5.4898	4.7441	-7.9232	-5.4529	-2.5972	1.3614	8.1864	2.7857	7.7538	5.0258	0.333	0.333	0.333	0.333	0.333	0.333	0.333	0.333	0.333	0.333	0.333	0.333	0.333	0.333	0.333	0.333	0.333	0.333	0.333	6.327	1.6743	5.5782	13	76	1.35943690695001	1	0
"77"	13	29	2	-4	-4.8	1	8	-1	1	2.421	-6.938	-2.7325	-11.0528	-2.8665	1.9324	-11.2308	-5.6451	-2.9249	-13.6499	-13.4274	-1.5646	-0.1891	6.9696	-3.0491	-5.0874	-6.8157	-8.199	-3.2211	-4.164	-2.9216	0.333	0.333	0.333	0.333	0.333	0.333	0.333	0.333	0.333	0.333	0.333	0.333	0.333	0.333	0.333	0.333	0.333	0.333	0.333	6.327	1.5585	3.988	13	77	0.884180677955921	0	1
"78"	13	4	2	0	0	1	11	1	1	3.537	-1.564	-1.3258	3.9455	-7.7767	2.1239	6.5072	-10.127	-3.2351	13.0943	3.4755	1.385	-0.5689	-1.5006	1.4318	2.5363	-4.5579	1.3561	-2.2947	0.9658	-4.4005	0.333	0.333	0.333	0.333	0.333	0.333	0.333	0.333	0.333	0.333	0.333	0.333	0.333	0.333	0.333	0.333	0.333	0.333	0.333	6.327	1.4669	5.0044	13	78	1.26327891022334	1	0
"79"	13	45	2	-1	-1.2	1	13	1	0	4.185	-3.2684	-6.6745	-0.5803	-0.6799	-2.0202	7.5916	-10.4758	-7.437	0.7639	-4.6012	6.5367	6.6241	-2.354	3.1768	-1.2532	-7.6258	-2.7501	4.4545	-2.2499	-0.8864	0.333	0.333	0.333	0.333	0.333	0.333	0.333	0.333	0.333	0.333	0.333	0.333	0.333	0.333	0.333	0.333	0.333	0.333	0.333	6.327	1.4898	5.6854	13	79	1.43150670394144	1	0
"80"	13	67	2	0	0	0	9	1	1	2.631	3.6348	6.5061	-1.7107	-3.4145	-4.0217	0.7765	7.2121	3.753	3.5693	-1.3714	-4.7696	-10.8957	-2.5569	-3.4192	-0.9576	-6.1434	-3.52	7.7202	3.837	4.3118	0.2895	0.4782	0.4397	0.3166	0.2189	0.3001	0.205	0.3515	0.2979	0.4296	0.2532	0.3259	0.2033	0.2995	0.3288	0.4176	0.2736	0.3802	0.5095	6.3188	1.4789	4.1149	13	80	0.967364002058156	1	0
"81"	13	2	2	-2	-2.4	1	16	-1	1	5.222	-1.4136	-0.9878	-6.6756	-3.108	-8.1912	-5.0425	5.294	-8.5812	1.4547	-3.849	2.4641	-10.5184	-1.9383	-0.2855	-10.2891	-3.143	3.4962	-2.7123	7.4871	0.2508	0.333	0.333	0.333	0.333	0.333	0.333	0.333	0.333	0.333	0.333	0.333	0.333	0.333	0.333	0.333	0.333	0.333	0.333	0.333	6.327	1.6055	6.8393	13	81	1.65288047027694	0	1
"82"	13	42	2	4	4.8	0	6	1	1	1.743	8.1961	10.389	-0.8847	-0.9512	13.3452	9.3479	-5.545	2.9067	5.7518	9.5887	6.0992	11.0352	0.451	4.3894	3.553	4.708	-3.0501	10.2063	4.8746	3.4047	0.3929	0.4611	0.2071	0.3199	0.2354	0.3195	0.359	0.2586	0.3583	0.3313	0.4817	0.312	0.4353	0.2087	0.4923	0.215	0.3757	0.2242	0.3321	6.3201	1.4759	3.2269	13	82	0.555607766537884	1	0
"83"	13	62	2	2	2.4	1	16	1	1	5.121	-0.2427	10.1848	2.8375	0.8848	6.6741	0.8505	0.3976	-6.3042	12.4253	-3.2537	-3.2818	-6.1631	4.8722	0.8148	2.9339	3.0241	1.8663	2.8787	5.7178	9.9153	0.333	0.333	0.333	0.333	0.333	0.333	0.333	0.333	0.333	0.333	0.333	0.333	0.333	0.333	0.333	0.333	0.333	0.333	0.333	6.327	1.488	6.622	13	83	1.63334973248041	1	0
"84"	13	8	2	-4	-4.8	0	15	-1	1	4.766	-5.1074	1.9586	-5.5866	-5.3094	-4.1668	-7.0371	0.6851	-12.5234	-11.0259	0.1454	-5.3126	-12.8741	-5.285	-1.8239	-15.1304	2.3887	-3.2521	-1.5053	-3.1571	-2.6551	0.4161	0.3259	0.4054	0.2516	0.3115	0.2322	0.4794	0.2272	0.4244	0.2537	0.3333	0.4666	0.4166	0.2146	0.2521	0.4221	0.3394	0.245	0.3176	6.3348	1.4728	6.25	13	84	1.56150737867655	0	1
"85"	13	5	2	1	1.2	1	8	1	1	2.609	2.5217	-7.0886	4.7213	10.8141	-3.7583	7.2029	-6.1211	6.0181	-5.3447	2.7514	3.1824	-1.1917	6.1439	1.0608	-5.1018	1.1222	-1.6147	0.6914	6.6196	0.4954	0.333	0.333	0.333	0.333	0.333	0.333	0.333	0.333	0.333	0.333	0.333	0.333	0.333	0.333	0.333	0.333	0.333	0.333	0.333	6.327	1.6018	4.2264	13	85	0.958967006154591	1	0
"86"	13	32	2	0	0	1	12	1	1	3.845	-3.7242	3.7018	-0.1422	-7.7497	6.836	2.5821	3.5601	2.1731	-4.0174	5.7479	0.3711	-5.7687	0.7813	-11.6896	-4.5079	-0.7399	1.5612	-2.4327	6.4988	6.2493	0.333	0.333	0.333	0.333	0.333	0.333	0.333	0.333	0.333	0.333	0.333	0.333	0.333	0.333	0.333	0.333	0.333	0.333	0.333	6.327	1.4042	5.2623	13	86	1.34677360295761	1	0
"87"	13	22	2	-4	-4.8	0	20	-1	1	6.422	-2.3535	-3.8498	-9.7764	-0.1386	0.1058	-10.4925	-10.0478	0.0861	-4.3244	-4.5142	2.5204	-3.3881	-6.4617	-7.5868	-11.3505	-15.1319	-1.7594	-9.485	4.1273	-3.0661	0.4893	0.3376	0.3041	0.4003	0.3061	0.3791	0.3109	0.4078	0.281	0.3693	0.41	0.3813	0.2621	0.407	0.292	0.2117	0.2401	0.3089	0.2245	6.3232	1.4104	7.8397	13	87	1.85972959566732	0	1
"88"	13	21	2	4	4.8	1	6	1	1	1.755	6.7503	9.7904	6.7176	7.9735	1.9387	2.1758	9.516	-6.6427	10.538	1.6218	1.4376	12.5061	5.2282	12.9888	-0.0151	7.6011	-0.8529	-0.5636	2.3925	4.4889	0.333	0.333	0.333	0.333	0.333	0.333	0.333	0.333	0.333	0.333	0.333	0.333	0.333	0.333	0.333	0.333	0.333	0.333	0.333	6.327	1.4336	3.1892	13	88	0.562468856917829	1	0
"89"	13	26	2	1	1.2	0	11	1	1	3.415	2.842	-0.1031	-4.2922	-2.2437	13.8319	-3.9949	2.2211	-0.5824	1.4403	1.7275	-0.1285	-4.4989	-0.2912	5.4388	3.9251	2.205	8.0192	6.6586	0.3313	-9.3867	0.3003	0.4463	0.2476	0.3112	0.3454	0.402	0.2652	0.3803	0.4964	0.2171	0.2434	0.5202	0.2524	0.3331	0.2347	0.3042	0.2656	0.3943	0.361	6.3207	1.4179	4.8322	13	89	1.22817749302275	1	0
"90"	13	23	2	-2	-2.4	0	14	-1	1	4.478	-5.4251	-2.0043	2.3467	1.1456	2.4231	-11.4345	-0.5044	-6.3123	2.7412	-6.2375	-4.3596	-9.6716	-5.8074	-3.0876	1.9559	5.8059	4.5797	-9.6919	-1.4962	-2.5675	0.3544	0.3922	0.2812	0.2497	0.2951	0.2334	0.2606	0.4109	0.3333	0.2234	0.4185	0.4453	0.4107	0.2163	0.4191	0.3736	0.2434	0.418	0.3423	6.3213	1.5743	6.0622	13	90	1.49917651817656	0	1
"91"	13	28	2	4	4.8	0	10	1	1	2.954	6.6658	10.3088	1.9597	7.8035	0.1098	-3.3023	7.3357	11.8462	7.5005	2.4224	6.1969	5.1066	9.1098	-0.0195	12.1	4.714	1.9913	-1.6366	9.8357	-5.5773	0.2292	0.4588	0.2504	0.2917	0.238	0.4619	0.3774	0.2979	0.3358	0.3732	0.2757	0.2036	0.48	0.2762	0.5198	0.3257	0.2732	0.245	0.4088	6.3224	1.4505	4.4212	13	91	1.08316018410919	1	0
"92"	13	10	2	-1	-1.2	0	16	1	0	5.357	0.7471	-1.5822	-0.7232	9.9983	-2.9924	-1.0897	-13.3093	-3.7746	-4.8718	1.4708	8.2979	0.5521	-7.8798	0.865	-1.9929	-3.5613	-4.7442	2.8853	-0.967	-0.315	0.3074	0.5232	0.2196	0.301	0.3944	0.2985	0.2342	0.4736	0.3782	0.4349	0.2319	0.3151	0.2446	0.424	0.3516	0.2418	0.4191	0.2242	0.3172	6.3346	1.7314	7.1083	13	92	1.67840411689882	1	0
"93"	13	57	2	-4	-4.8	1	7	-1	1	2.301	-2.9795	-8.632	-12.1463	-3.304	0.0866	-7.5408	-17.1975	-2.1457	-0.2426	-11.7396	-5.6089	-6.9054	-1.9005	-1.3273	-1.9946	-1.3991	-6.4133	-0.112	2.8056	-7.1098	0.333	0.333	0.333	0.333	0.333	0.333	0.333	0.333	0.333	0.333	0.333	0.333	0.333	0.333	0.333	0.333	0.333	0.333	0.333	6.327	1.6764	3.9851	13	93	0.833343811053229	0	1
"94"	13	16	2	-2	-2.4	1	15	1	0	4.777	-6.1201	-3.474	-10.4314	0.748	-10.5454	4.7952	-1.2744	-7.4873	2.7854	-5.8359	-1.2091	-4.574	9.8732	0.9231	-2.1133	-3.8649	-4.6864	-4.1059	2.9609	-4.3379	0.333	0.333	0.333	0.333	0.333	0.333	0.333	0.333	0.333	0.333	0.333	0.333	0.333	0.333	0.333	0.333	0.333	0.333	0.333	6.327	1.61	6.3942	13	94	1.56381273440782	1	0
"95"	13	68	2	1	1.2	0	9	1	1	2.98	3.5016	11.3554	-4.119	0.1784	1.9125	1.282	1.2623	-0.29	-2.1139	6.6894	-5.2099	4.3982	-5.9811	2.6962	-5.2486	-4.4719	9.1044	-0.4662	3.9447	6.4521	0.3679	0.2031	0.2569	0.4713	0.3334	0.2437	0.438	0.3866	0.4302	0.2984	0.4376	0.3494	0.3892	0.2741	0.346	0.2954	0.2298	0.3196	0.2597	6.3303	1.463	4.4477	13	95	1.09192330051731	1	0
"96"	13	63	2	4	4.8	1	5	1	1	1.411	5.3456	4.5747	13.0802	8.4878	10.8888	3.788	1.2704	-0.8382	-0.9239	6.8301	7.0143	-0.2415	11.591	2.5856	-2.113	9.2889	2.3902	-1.323	1.0192	12.1175	0.333	0.333	0.333	0.333	0.333	0.333	0.333	0.333	0.333	0.333	0.333	0.333	0.333	0.333	0.333	0.333	0.333	0.333	0.333	6.327	1.5498	2.9613	13	96	0.344298672870677	1	0
"97"	13	61	2	1	1.2	1	8	-1	0	2.402	1.5304	-0.78	1.8778	-2.5781	0.7569	-9.8428	1.972	0.6596	0.4106	-2.5288	1.6727	12.8682	8.7712	-3.6212	3.7629	3.1535	-4.347	0.0195	7.1304	5.0599	0.333	0.333	0.333	0.333	0.333	0.333	0.333	0.333	0.333	0.333	0.333	0.333	0.333	0.333	0.333	0.333	0.333	0.333	0.333	6.327	1.7108	4.1198	13	97	0.876301723657792	0	1
"98"	13	54	2	1	1.2	0	20	-1	0	6.887	3.4357	8.2534	-0.69	-2.1725	7.7775	-12.1899	-1.2264	7.3235	3.2691	6.3122	5.2153	0.828	2.9357	-1.5704	3.0587	-1.9444	0.6701	2.3365	1.1691	-7.098	0.2653	0.3155	0.2317	0.3885	0.3476	0.2817	0.4643	0.2559	0.4848	0.3692	0.3	0.3793	0.2638	0.3395	0.3756	0.3338	0.2043	0.4409	0.2871	6.3287	1.6084	8.5043	13	98	1.92963557656256	0	1
"99"	13	59	2	-1	-1.2	1	20	1	0	6.93	-5.0365	5.1578	3.5432	-5.0075	-11.667	-3.7649	-6.4623	-6.5721	-2.6257	-1.731	-2.3518	2.2833	5.2919	-6.676	-4.3631	5.7724	3.049	1.6104	3.2432	3.6933	0.333	0.333	0.333	0.333	0.333	0.333	0.333	0.333	0.333	0.333	0.333	0.333	0.333	0.333	0.333	0.333	0.333	0.333	0.333	6.327	1.5404	8.4808	13	99	1.93585981320181	1	0
"100"	13	41	2	2	2.4	0	20	1	1	6.993	1.4347	8.3084	-5.6444	4.6813	-2.098	6.6975	9.5879	3.3486	4.7382	-0.5417	2.3854	10.4721	4.2375	-4.7173	-0.2869	-2.1058	2.9988	-6.1699	4.5947	7.6395	0.3776	0.4694	0.5194	0.309	0.36	0.2157	0.3969	0.271	0.2456	0.2991	0.3708	0.2054	0.4711	0.3134	0.2396	0.3896	0.3061	0.2455	0.3247	6.3301	1.4178	8.4267	13	100	1.94490964872173	1	0
"101"	13	55	2	2	2.4	0	15	-1	0	4.999	0.2395	4.8347	0.2171	7.2887	4.0447	8.5595	13.4859	-2.7743	2.7456	7.6728	-3.5358	7.5488	-0.6221	-2.2369	-1.491	5.0492	4.7717	-4.3789	-2.2181	-1.2207	0.3899	0.3358	0.3942	0.2555	0.4155	0.2414	0.4198	0.2553	0.3593	0.2918	0.4594	0.2307	0.4187	0.387	0.2373	0.3075	0.2572	0.4272	0.2517	6.3353	1.6974	6.7	13	101	1.60923789243143	0	1
"102"	13	50	2	-4	-4.8	0	11	-1	1	3.452	-3.985	-6.6658	-11.6463	-0.1521	1.6269	-0.462	-2.9715	-5.7746	-16.3343	-5.0951	4.069	-2.8994	-14.9617	-6.1918	-7.2889	-4.2828	-1.9492	-4.072	-2.8716	-2.8496	0.4996	0.2994	0.3537	0.2032	0.2811	0.2156	0.3439	0.5124	0.277	0.2361	0.439	0.3144	0.4344	0.2346	0.2711	0.4289	0.3239	0.2572	0.3952	6.3207	1.7216	5.1861	13	102	1.23895377322118	0	1
"103"	13	34	2	2	2.4	1	11	1	1	3.379	7.2512	7.1062	9.2062	3.0616	-2.9853	-0.4194	3.9699	-4.1883	1.5772	9.3027	6.4171	9.1443	-4.6553	5.7755	3.1426	-6.4932	4.2897	2.2825	0.3638	-4.5815	0.333	0.333	0.333	0.333	0.333	0.333	0.333	0.333	0.333	0.333	0.333	0.333	0.333	0.333	0.333	0.333	0.333	0.333	0.333	6.327	1.4419	4.8303	13	103	1.21757980773215	1	0
"104"	13	38	2	-1	-1.2	0	15	1	0	4.615	1.4203	-1.6718	-3.0022	1.3288	-0.7042	0.6894	2.4487	-6.0345	-7.6988	-1.5392	-6.4087	-4.1661	-8.849	-3.9217	-6.7349	8.4313	4.0653	-1.3897	-0.1513	9.181	0.2392	0.2874	0.2414	0.4019	0.28	0.4034	0.3379	0.2511	0.3496	0.2689	0.5194	0.4942	0.239	0.2708	0.4109	0.3556	0.2748	0.4477	0.2567	6.3299	1.5888	6.2157	13	104	1.52931186795482	1	0
"105"	13	33	2	1	1.2	1	20	-1	0	7.011	-3.3139	1.6931	-1.5531	4.0064	3.8397	11.437	6.9534	1.9325	1.8501	2.1134	-6.8215	-3.5668	-6.3443	4.5202	-2.5817	2.2404	-1.5932	8.901	-5.0422	3.5825	0.333	0.333	0.333	0.333	0.333	0.333	0.333	0.333	0.333	0.333	0.333	0.333	0.333	0.333	0.333	0.333	0.333	0.333	0.333	6.327	1.4139	8.4288	13	105	1.94748034422483	0	1
"106"	13	12	2	1	1.2	0	16	1	1	5.045	-0.9461	-8.0801	7.0876	-3.5057	3.7858	-3.1155	-7.2966	-2.1926	1.2329	0.5737	5.3799	3.0235	3.7508	5.9525	-0.4214	0.3049	-0.1785	6.2081	-0.7797	11.991	0.299	0.52	0.2132	0.4197	0.3431	0.2775	0.412	0.5097	0.2366	0.474	0.2459	0.2122	0.3032	0.2744	0.2296	0.345	0.2722	0.3319	0.4163	6.3355	1.706	6.7459	13	106	1.61839765380557	1	0
"107"	13	46	2	0	0	1	17	-1	1	5.66	2.2378	-4.8335	9.2423	-0.6816	13.254	-2.7987	-3.335	0.0773	-0.0219	-2.9928	-2.3248	-6.8133	0.1151	0.0407	5.2503	-5.4351	0.4979	-1.6551	-4.872	6.1968	0.333	0.333	0.333	0.333	0.333	0.333	0.333	0.333	0.333	0.333	0.333	0.333	0.333	0.333	0.333	0.333	0.333	0.333	0.333	6.327	1.4175	7.0944	13	107	1.73342389221509	0	1
"108"	13	51	2	-2	-2.4	0	16	-1	1	5.538	1.6007	-2.4149	3.4909	-2.3638	-3.4096	0.2892	-3.3738	-3.3603	1.2873	-1.7683	-2.0821	-10.7811	3.5687	5.3214	-0.9254	-2.6782	-12.0859	0.6029	-9.2648	-10.422	0.4049	0.2519	0.3877	0.5083	0.2153	0.5035	0.2926	0.3654	0.4503	0.341	0.2236	0.4409	0.3537	0.2058	0.282	0.3361	0.2199	0.2948	0.2407	6.3184	1.4286	6.9721	13	108	1.71163342474877	0	1
"109"	13	9	2	-2	-2.4	0	15	-1	1	4.617	-6.3086	-1.7473	-9.6173	-0.105	5.1069	-11.5132	-7.1807	-6.0094	4.325	-7.6412	-2.7532	-3.1699	-5.7043	-6.4571	-2.4907	0.2675	2.4916	1.3412	3.702	4.453	0.3977	0.2165	0.3541	0.2493	0.2093	0.2863	0.4471	0.3032	0.3341	0.3769	0.2813	0.4369	0.2762	0.2121	0.4262	0.274	0.347	0.4287	0.4681	6.325	1.5149	6.1342	13	109	1.52974514352485	0	1
"110"	13	69	2	2	2.4	0	8	1	1	2.578	5.0218	11.6789	-0.2476	8.1963	0.2397	6.6979	0.7046	-4.1396	3.0144	0.432	1.2682	-1.6091	-0.8836	5.454	-2.5548	10.8249	4.6798	0.0747	5.9145	-7.4608	0.234	0.514	0.4557	0.2491	0.305	0.2516	0.2832	0.4612	0.3265	0.4127	0.2967	0.2574	0.2287	0.4015	0.3473	0.4503	0.2839	0.328	0.2453	6.3323	1.6199	4.2121	13	110	0.947013904516996	1	0
"111"	13	17	2	-1	-1.2	1	14	-1	1	4.637	1.3444	-3.7092	-2.2405	-3.4394	-8.7851	3.7553	6.6365	-7.2133	-3.95	-1.8679	-2.6407	-12.5714	0.9745	4.2245	0.5456	7.1302	3.4046	-4.0764	0.1833	-2.4004	0.333	0.333	0.333	0.333	0.333	0.333	0.333	0.333	0.333	0.333	0.333	0.333	0.333	0.333	0.333	0.333	0.333	0.333	0.333	6.327	1.7001	6.3374	13	111	1.53406760540932	0	1
"112"	13	58	2	-2	-2.4	1	13	1	0	4.169	2.5812	-1.0019	-6.8103	-8.5349	5.0035	-5.1	-4.3421	1.8484	-14.1992	-5.0549	5.2495	0.077	-4.0588	-6.7689	-2.9176	-5.0818	4.8476	1.1897	-1.3667	-2.3746	0.333	0.333	0.333	0.333	0.333	0.333	0.333	0.333	0.333	0.333	0.333	0.333	0.333	0.333	0.333	0.333	0.333	0.333	0.333	6.327	1.7172	5.8863	13	112	1.42767619889866	1	0
"113"	13	24	2	-1	-1.2	0	8	-1	1	2.738	3.027	-0.5524	-11.7548	-5.0915	1.4316	-7.5389	-3.0608	-4.8125	1.8459	-0.5384	3.5696	7.0891	-3.6708	-3.1747	0.8885	-11.4809	2.6196	3.4593	-0.3942	2.4016	0.4038	0.2911	0.2462	0.3831	0.3011	0.4231	0.4824	0.509	0.41	0.2214	0.3146	0.4452	0.2075	0.2668	0.2035	0.3669	0.2573	0.3971	0.2	6.33	1.6227	4.3722	13	113	1.00722772686626	0	1
"114"	13	3	2	-1	-1.2	1	20	1	0	6.405	2.2269	-12.7456	-2.9432	2.7151	-7.6142	0.9827	1.1154	-6.3786	2.8035	-5.0581	-0.4265	5.563	-2.6158	-5.3287	-3.2586	5.4556	-2.6963	-2.6885	-3.0588	8.6453	0.333	0.333	0.333	0.333	0.333	0.333	0.333	0.333	0.333	0.333	0.333	0.333	0.333	0.333	0.333	0.333	0.333	0.333	0.333	6.327	1.6401	8.0389	13	114	1.8570789353487	1	0
"115"	13	31	2	-1	-1.2	1	12	1	0	3.902	-0.878	7.0595	-1.008	4.2643	3.4171	3.6172	0.8487	5.3202	-1.8624	-8.0081	1.7927	-8.7384	-7.8775	-5.9677	-7.492	-7.9055	2.0362	-2.6933	-1.8127	0.684	0.333	0.333	0.333	0.333	0.333	0.333	0.333	0.333	0.333	0.333	0.333	0.333	0.333	0.333	0.333	0.333	0.333	0.333	0.333	6.327	1.7129	5.6362	13	115	1.36148924220092	1	0
"116"	13	66	2	-1	-1.2	0	20	-1	1	6.787	-2.7686	-4.9762	3.1632	-7.6501	-7.7827	0.1014	-6.4291	1.6467	5.9548	0.7775	-1.2108	-0.0129	-3.9508	-7.9331	7.5635	1.5835	4.5899	2.3223	-9.3317	-1.1447	0.2373	0.3408	0.2402	0.2919	0.3341	0.4805	0.2487	0.4581	0.4273	0.2783	0.2054	0.362	0.3305	0.2433	0.3289	0.4439	0.3213	0.4023	0.3613	6.3361	1.5199	8.3207	13	116	1.91500901772162	0	1
"117"	13	49	2	4	4.8	1	5	1	1	1.338	9.2671	5.8165	10.4919	10.504	2.3121	4.8707	6.5533	2.912	3.7959	5.416	10.1018	11.316	-8.356	7.055	3.5869	5.1996	3.6916	-4.7401	0.8479	5.0425	0.333	0.333	0.333	0.333	0.333	0.333	0.333	0.333	0.333	0.333	0.333	0.333	0.333	0.333	0.333	0.333	0.333	0.333	0.333	6.327	1.4292	2.7725	13	117	0.291175961706037	1	0
"118"	13	65	2	-2	-2.4	0	13	-1	1	4.266	0.6798	-4.8489	5.6066	3.0528	-3.5062	-9.247	-3.769	-0.5741	-12.9259	1.3425	2.1753	-3.2293	-0.9806	0.3396	-7.715	2.5435	2.8087	-8.0185	-9.0014	-0.829	0.3666	0.4192	0.3007	0.2459	0.2783	0.3438	0.2075	0.2485	0.4189	0.5236	0.3321	0.3822	0.2746	0.4471	0.3362	0.2792	0.3431	0.2245	0.3591	6.3309	1.7023	5.9838	13	118	1.45067662004916	0	1
"119"	13	35	2	4	4.8	1	4	1	1	1.13	7.7158	3.8022	10.7148	15.1073	5.3974	8.9954	3.3342	-4.2321	0.5719	4.9333	7.7638	8.9481	7.1957	9.747	2.0624	5.5669	2.6591	-2.3446	-4.7474	2.3142	0.333	0.333	0.333	0.333	0.333	0.333	0.333	0.333	0.333	0.333	0.333	0.333	0.333	0.333	0.333	0.333	0.333	0.333	0.333	6.327	1.4378	2.5806	13	119	0.122217632724249	1	0
"120"	13	13	2	2	2.4	0	5	1	1	1.238	1.952	2.0869	3.8419	7.1478	-6.9647	0.6083	-2.0942	6.9063	5.6832	8.4667	1.9026	3.1309	-9.8362	2.2204	-4.2248	6.5268	6.0998	6.5874	5.8262	3.8617	0.2594	0.2313	0.2587	0.31	0.4819	0.329	0.2593	0.3505	0.5097	0.4743	0.4312	0.3406	0.2035	0.2811	0.3343	0.2376	0.3564	0.4287	0.251	6.3286	1.6005	2.839	13	120	0.213497174262404	1	0
"121"	13	44	2	-2	-2.4	1	13	-1	1	3.998	1.2945	-4.9659	3.2289	-6.7706	-5.8193	3.704	-8.5694	-3.0981	-1.443	-8.4336	-1.2704	-4.2423	1.1676	-5.5919	4.9899	7.1705	-11.1674	-2.0661	-0.4064	-5.5479	0.333	0.333	0.333	0.333	0.333	0.333	0.333	0.333	0.333	0.333	0.333	0.333	0.333	0.333	0.333	0.333	0.333	0.333	0.333	6.327	1.4557	5.465	13	121	1.38579423607821	0	1
"122"	13	47	2	1	1.2	1	4	1	1	1.203	4.3351	1.2854	2.4216	-2.2993	9.2819	-9.7803	1.1511	2.648	-0.9284	7.2087	1.1681	2.2641	5.1358	9.7669	5.2401	-7.1411	-4.9872	-1.2558	1.6893	-3.2089	0.333	0.333	0.333	0.333	0.333	0.333	0.333	0.333	0.333	0.333	0.333	0.333	0.333	0.333	0.333	0.333	0.333	0.333	0.333	6.327	1.4144	2.6208	13	122	0.184818436992542	1	0
"123"	13	36	2	-4	-4.8	0	9	-1	1	2.763	-0.0321	-10.8389	-0.9721	1.2618	-9.5343	-7.0266	-7.8206	-11.9372	5.6573	-5.788	-11.7504	-2.2603	-8.4471	0.2718	-6.8166	-2.6626	0.2939	-5.6712	-10.8679	-2.2453	0.2022	0.482	0.2706	0.3584	0.2503	0.3144	0.2225	0.425	0.33	0.229	0.3701	0.3011	0.4634	0.3545	0.2411	0.4994	0.2025	0.3384	0.4661	6.3212	1.6651	4.43	13	123	1.01631704594128	0	1
"124"	13	27	2	2	2.4	0	10	1	1	3.457	-2.2418	-1.5221	2.1355	9.4522	1.0833	-0.0154	-3.2763	6.6962	2.1937	-4.6683	2.3406	1.1498	4.2912	5.5677	-4.717	3.5817	8.5561	10.8844	-4.7288	10.4045	0.2249	0.3498	0.455	0.2027	0.2858	0.3937	0.4292	0.4746	0.252	0.4778	0.2127	0.41	0.4927	0.3249	0.3714	0.2157	0.273	0.2146	0.2642	6.3246	1.5923	5.0578	13	124	1.24040116093949	1	0
"125"	13	48	2	2	2.4	1	8	1	1	2.46	6.1809	3.888	2.2882	-1.3374	0.7343	-2.1053	1.7944	5.2322	4.2108	-1.6903	4.3095	3.0052	-4.1673	8.5214	2.8768	6.8686	-6.0301	-1.468	-2.4536	16.0987	0.333	0.333	0.333	0.333	0.333	0.333	0.333	0.333	0.333	0.333	0.333	0.333	0.333	0.333	0.333	0.333	0.333	0.333	0.333	6.327	1.5185	3.9939	13	125	0.900161349944271	1	0
"126"	13	40	2	1	1.2	0	10	1	1	3.15	-3.6792	-3.7542	2.8836	1.2039	5.4419	-6.683	4.0103	0.5343	-5.6824	1.1957	-6.7178	-5.3715	5.4562	8.3418	0.4692	5.5292	6.0098	8.826	1.2842	6.4817	0.2049	0.2435	0.4516	0.3001	0.4321	0.3715	0.3988	0.2256	0.3362	0.4587	0.332	0.3928	0.3098	0.419	0.2956	0.2352	0.4005	0.2382	0.2793	6.3255	1.4475	4.6173	13	126	1.14740245283754	1	0
"127"	13	20	2	2	2.4	1	5	1	1	1.418	4.5397	-3.5305	5.1638	14.81	2.9239	-4.4657	1.0235	-1.0037	2.7429	0.2781	11.2906	-0.322	-0.6593	2.8816	4.9086	6.4499	1.6139	6.5909	-2.1861	-4.3696	0.333	0.333	0.333	0.333	0.333	0.333	0.333	0.333	0.333	0.333	0.333	0.333	0.333	0.333	0.333	0.333	0.333	0.333	0.333	6.327	1.6085	3.0357	13	127	0.349247428109936	1	0
"128"	13	30	2	-2	-2.4	1	14	1	0	4.637	-1.959	-13.2404	-0.8056	2.716	-5.4907	0.8218	-1.0125	-1.8997	4.8189	1.1264	-5.8902	3.2165	-3.8263	-7.5791	-0.0561	-11.2564	1.3224	-8.7828	-2.1492	2.6766	0.333	0.333	0.333	0.333	0.333	0.333	0.333	0.333	0.333	0.333	0.333	0.333	0.333	0.333	0.333	0.333	0.333	0.333	0.333	6.327	1.6931	6.3376	13	128	1.53406760540932	1	0
"129"	13	37	2	-2	-2.4	0	18	1	0	5.861	-3.6879	-3.9979	-3.2582	-15.7909	0.9149	2.3054	4.9866	1.8526	5.1465	-1.0598	-6.1713	-2.2722	-2.3159	-4.456	2.0681	-4.2363	1.028	-5.808	-3.3313	-10.608	0.3895	0.287	0.4293	0.3003	0.2483	0.413	0.4622	0.2277	0.4656	0.2975	0.2491	0.2137	0.3077	0.2768	0.4868	0.4358	0.3323	0.2685	0.2275	6.3186	1.683	7.5615	13	129	1.76832023749429	1	0
"130"	13	14	2	4	4.8	0	3	1	1	1.043	6.5192	8.4056	2.8695	11.7462	6.1865	6.8688	0.6705	4.9914	-6.419	2.4455	-7.3586	7.7343	9.7011	7.6071	5.7087	10.3652	2.052	2.6111	6.4673	6.5971	0.2554	0.3186	0.4795	0.2254	0.4835	0.4196	0.2579	0.4792	0.298	0.4922	0.4268	0.2907	0.3897	0.2366	0.29	0.2002	0.254	0.2152	0.3138	6.3264	1.6044	2.6607	13	130	0.0421011760186353	1	0
"131"	13	64	2	-4	-4.8	0	8	-1	1	2.284	-9.3056	-0.094	-8.6446	-13.2812	-3.0985	-2.0775	-8.1594	-12.1304	-7.1267	1.9358	-4.7449	-2.277	-5.2175	-7.7267	0.9832	1.7703	-11.8619	3.103	-3.4243	-3.4577	0.2029	0.3175	0.3735	0.2529	0.3477	0.2031	0.2658	0.5213	0.3542	0.4874	0.3074	0.2381	0.4258	0.3218	0.462	0.2052	0.3869	0.2638	0.3984	6.3356	1.7178	4.0018	13	131	0.825928291793764	0	1
"132"	13	19	2	1	1.2	1	20	1	1	7.139	2.2413	2.6037	-3.8368	4.8983	1.0913	3.8116	-3.7974	6.7429	7.2549	-8.2942	1.8533	-5.3573	5.8873	2.1591	0.8377	6.8599	-10.8634	4.6713	2.9351	0.4754	0.333	0.333	0.333	0.333	0.333	0.333	0.333	0.333	0.333	0.333	0.333	0.333	0.333	0.333	0.333	0.333	0.333	0.333	0.333	6.327	1.4284	8.5729	13	132	1.96557271052032	1	0
"133"	13	18	2	0	0	1	12	1	1	3.971	4.6785	-4.4816	1.467	1.2133	-1.641	4.5555	-1.6538	10.2193	3.71	-1.5306	5.4088	-4.4579	-4.0205	-4.4837	-5.4569	5.5552	-9.4937	0.3901	-3.6282	4.725	0.333	0.333	0.333	0.333	0.333	0.333	0.333	0.333	0.333	0.333	0.333	0.333	0.333	0.333	0.333	0.333	0.333	0.333	0.333	6.327	1.5541	5.5214	13	133	1.37901795214911	1	0
"134"	13	25	2	0	0	0	20	-1	1	6.99	-0.8819	0.0841	2.6887	-8.3581	-7.6706	2.5762	-9.9055	10.447	-3.526	1.1782	-2.4085	4.1323	-5.0143	4.1431	2.918	3.591	1.8661	2.7005	2.0414	-0.8217	0.249	0.4359	0.4702	0.2035	0.495	0.3389	0.283	0.4466	0.2204	0.5271	0.2629	0.5284	0.2238	0.3235	0.221	0.3284	0.2654	0.2965	0.2071	6.3267	1.7018	8.6911	13	134	1.94448055624572	0	1
"135"	13	56	2	4	4.8	0	5	1	1	1.514	6.9518	5.6741	-2.2292	13.1701	6.6542	-1.1318	0.1768	9.229	16.7797	-2.1492	5.3574	0.395	8.781	1.1917	3.3229	3.7432	8.4359	3.5329	2.4236	5.1318	0.2241	0.355	0.4806	0.2466	0.2916	0.2421	0.5044	0.2652	0.4413	0.3918	0.241	0.499	0.2093	0.3729	0.2506	0.3103	0.4576	0.3307	0.2064	6.3204	1.4794	3.0147	13	135	0.414755155015257	1	0
"136"	13	52	2	-1	-1.2	0	9	-1	1	2.573	-5.6444	0.3162	3.3418	-0.5858	2.0999	-3.2196	-7.8984	0.0896	11.1397	1.9181	-4.8962	-7.4567	1.2599	2.3843	0.1785	4.3981	-3.2717	-7.8813	-2.5553	-7.3461	0.4142	0.2888	0.2527	0.2934	0.3468	0.3026	0.3665	0.275	0.2483	0.506	0.2108	0.3569	0.4848	0.2651	0.3491	0.2822	0.3101	0.4524	0.3234	6.3292	1.433	4.0237	13	136	0.945072533299607	0	1
"137"	13	1	2	-4	-4.8	1	5	-1	1	1.557	-4.7785	-4.779	-1.6072	-9.3218	3.4424	0.1351	-0.8478	-11.6163	-1.2408	-8.0266	-13.3328	2.2481	-3.5002	-14.3433	-8.3438	-5.8942	-2.2471	-4.6161	-6.6743	-1.7239	0.333	0.333	0.333	0.333	0.333	0.333	0.333	0.333	0.333	0.333	0.333	0.333	0.333	0.333	0.333	0.333	0.333	0.333	0.333	6.327	1.5251	3.0912	13	137	0.442760892851861	0	1
"138"	13	39	2	0	0	0	17	1	1	5.295	-3.542	3.8593	3.7798	0.6545	5.0521	5.7622	0.9132	2.9735	10.4388	1.2603	-9.8272	-2.1506	0.4649	-1.3315	-2.2127	-6.1833	-5.5834	-8.0507	1.488	1.7629	0.3011	0.2358	0.2759	0.4559	0.2139	0.303	0.2408	0.2828	0.2199	0.2798	0.5267	0.4291	0.2331	0.3576	0.4424	0.3125	0.514	0.4822	0.2158	6.3221	1.6514	6.9623	13	138	1.66676297905337	1	0
"139"	13	70	2	4	4.8	0	11	1	1	3.286	8.8391	5.8452	7.6285	-2.832	4.6868	8.9429	4.6671	7.2041	9.6804	2.1829	1.8871	10.5309	-0.9514	8.5838	-0.5297	2.4891	-1.0773	-0.3234	1.8298	16.2874	0.3213	0.2267	0.2857	0.2552	0.4942	0.2176	0.3637	0.2265	0.3625	0.3329	0.4368	0.2937	0.508	0.2867	0.2099	0.3615	0.2773	0.4758	0.389	6.325	1.4244	4.72	13	139	1.18967101961508	1	0
"140"	13	53	2	0	0	0	10	-1	0	3.097	-0.9509	7.3036	-7.6662	3.18	2.3463	-1.9161	-3.4937	-1.6645	-0.658	-7.255	1.6956	6.3835	10.3149	5.0905	-1.7692	3.5392	-2.2611	-1.1453	-6.2939	-4.7889	0.3927	0.2418	0.3765	0.3241	0.4009	0.2458	0.4679	0.2294	0.3503	0.2482	0.2765	0.3773	0.3442	0.5037	0.2226	0.3143	0.2547	0.3242	0.4325	6.3274	1.5232	4.6308	13	140	1.13043390099107	0	1
"141"	13	10	3	-1	-1.2	0	18	1	0	5.679	-1.1405	-0.4561	7.314	-8.8624	-5.0836	-2.0275	-4.6802	-7.397	0.9398	-6.2454	0.7766	3.4096	0.4697	-7.4383	-1.8611	11.367	-3.3162	-1.5549	-3.8307	3.6483	0.4914	0.2514	0.3156	0.2454	0.3465	0.2123	0.3708	0.2612	0.3294	0.2335	0.5039	0.3907	0.3623	0.2231	0.2527	0.3152	0.505	0.3256	0.3894	6.3254	1.5202	7.2131	13	141	1.7367751608953	1	0
"142"	13	8	3	-4	-4.8	0	6	-1	1	1.697	-4.9395	-1.9914	-5.0717	-12.5571	-7.9797	-6.7554	-0.2567	-1.5067	-6.271	0.555	1.0248	-9.4376	4.1297	-8.2089	-7.9547	-0.0659	-13.3464	-1.3405	-3.9092	-11.6851	0.2571	0.2027	0.3623	0.2458	0.311	0.4479	0.4074	0.3572	0.4029	0.2763	0.4795	0.2085	0.2927	0.3891	0.4674	0.2392	0.5101	0.2035	0.2588	6.3193	1.673	3.3807	13	142	0.528861986252089	0	1
"143"	13	18	3	0	0	1	8	1	0	2.449	-1.7231	-2.7519	-5.8218	1.6697	-1.3861	-4.8499	5.321	5.6528	-2.2423	-7.1704	-5.5113	4.9649	6.7012	-3.2673	8.8628	5.2663	-0.7589	3.6145	-0.5847	-7.663	0.333	0.333	0.333	0.333	0.333	0.333	0.333	0.333	0.333	0.333	0.333	0.333	0.333	0.333	0.333	0.333	0.333	0.333	0.333	6.327	1.4312	3.8835	13	143	0.895679777970031	1	0
"144"	13	46	3	0	0	1	11	1	1	3.644	3.5209	-7.9094	-6.673	5.5162	-0.2596	6.6424	-5.7756	-1.7012	-0.4515	9.7229	-0.1457	-4.6087	0.3936	2.6907	5.2135	0.115	2.4236	-8.059	-5.0484	3.3409	0.333	0.333	0.333	0.333	0.333	0.333	0.333	0.333	0.333	0.333	0.333	0.333	0.333	0.333	0.333	0.333	0.333	0.333	0.333	6.327	1.4046	5.0445	13	144	1.29308197939771	1	0
"145"	13	30	3	-2	-2.4	1	20	-1	1	6.927	-5.5908	-1.7093	-0.1118	-2.0985	5.0773	4.6487	-4.9145	-9.2938	-11.1077	-8.6253	3.8933	0.551	-3.4126	1.4219	-0.3046	0.9869	-5.1716	-5.1123	-9.2446	3.2068	0.333	0.333	0.333	0.333	0.333	0.333	0.333	0.333	0.333	0.333	0.333	0.333	0.333	0.333	0.333	0.333	0.333	0.333	0.333	6.327	1.4255	8.3606	13	145	1.93542681904047	0	1
"146"	13	50	3	-4	-4.8	0	7	-1	1	2.283	-9.6456	-5.8814	-10.6025	-8.1613	-10.2781	-10.4918	-0.4027	-3.516	4.1394	-8.9412	-2.3402	-0.4509	5.0671	-5.5069	-4.7275	-11.4043	-6.6912	1.4605	0.0665	-7.2347	0.2041	0.4514	0.2837	0.5251	0.3874	0.2564	0.3122	0.2508	0.5266	0.4316	0.2413	0.3083	0.4997	0.3005	0.2571	0.2141	0.3014	0.2662	0.3155	6.3336	1.4382	3.7337	13	146	0.825490367547658	0	1
"147"	13	44	3	-2	-2.4	1	20	1	0	7.541	-1.6001	-6.3075	1.3462	3.8398	-3.9992	-5.6075	-13.159	-10.6001	0.9076	-0.8012	3.3627	-6.3859	-0.1256	-3.3474	-1.4451	5.334	-6.947	2.4384	0.9166	-5.4243	0.333	0.333	0.333	0.333	0.333	0.333	0.333	0.333	0.333	0.333	0.333	0.333	0.333	0.333	0.333	0.333	0.333	0.333	0.333	6.327	1.4084	8.9579	13	147	2.02035479922051	1	0
"148"	13	36	3	-4	-4.8	0	7	-1	1	2.315	-1.974	-5.6477	-5.6573	-10.1982	-11.8361	-3.9189	3.8723	-5.8818	-6.7624	-16.1048	-9.1989	2.3922	2.0406	-5.9243	-5.8719	-7.0662	-4.1	-4.0156	2.8919	-4.1569	0.4561	0.498	0.2658	0.4171	0.2098	0.4002	0.3556	0.2381	0.3308	0.2079	0.2675	0.3074	0.2388	0.4438	0.2542	0.5129	0.2534	0.2247	0.4371	6.3192	1.6437	3.9658	13	148	0.839409687538197	0	1
"149"	13	35	3	4	4.8	1	4	1	1	1.277	9.382	0.9541	5.2624	13.2834	0.6668	-1.2507	3.8671	6.7022	2.5995	12.1113	9.419	11.49	-0.8524	1.1038	6.6496	-4.5705	9.7794	-0.5162	4.6901	4.8792	0.333	0.333	0.333	0.333	0.333	0.333	0.333	0.333	0.333	0.333	0.333	0.333	0.333	0.333	0.333	0.333	0.333	0.333	0.333	6.327	1.4976	2.7772	13	149	0.244513577050402	1	0
"150"	13	69	3	2	2.4	0	7	1	1	2.356	-1.5873	-0.3334	4.0898	6.6985	-0.6305	8.5247	-2.6145	10.1778	0.9178	1.7437	-2.9498	6.4644	0.6403	11.364	1.7996	-5.3319	10.52	-2.2202	-1.2033	2.4073	0.5102	0.2655	0.5036	0.2926	0.3936	0.2699	0.416	0.2763	0.3174	0.3493	0.2389	0.272	0.2249	0.5177	0.2081	0.2352	0.3793	0.2792	0.3745	6.3243	1.6936	4.0571	13	150	0.85696526578934	1	0
"151"	13	14	3	4	4.8	0	4	1	1	1.001	3.602	12.1352	9.4144	6.4883	5.8437	-2.0011	6.9723	2.7545	9.9404	-0.1276	3.2914	14.132	-4.9351	0.4986	2.6994	5.8944	0.7478	12.9635	2.9134	2.1832	0.3489	0.2714	0.2219	0.3887	0.227	0.3617	0.4055	0.2722	0.4725	0.2612	0.4084	0.2021	0.3242	0.2854	0.2302	0.3364	0.4191	0.47	0.4212	6.328	1.639	2.652	13	151	0.000999500333083423	1	0
"152"	13	4	3	0	0	1	4	-1	0	1.107	-2.0568	-8.035	1.6168	10.0125	7.3913	-5.2252	4.5846	1.5245	1.2802	-5.1799	-3.1517	-3.2561	0.0209	-2.6611	-7.1984	9.0099	2.1665	2.3557	-2.6817	-2.4055	0.333	0.333	0.333	0.333	0.333	0.333	0.333	0.333	0.333	0.333	0.333	0.333	0.333	0.333	0.333	0.333	0.333	0.333	0.333	6.327	1.4042	2.5246	13	152	0.1016536537265	0	1
"153"	13	2	3	-2	-2.4	1	19	-1	1	6.319	-5.1739	-11.2213	2.9665	3.3722	6.3721	1.4557	-5.0238	-6.0816	0.8517	-0.3466	-1.8392	-7.0525	1.2284	-2.6312	-1.8324	3.3656	-12.5041	-2.7693	-7.905	-2.3707	0.333	0.333	0.333	0.333	0.333	0.333	0.333	0.333	0.333	0.333	0.333	0.333	0.333	0.333	0.333	0.333	0.333	0.333	0.333	6.327	1.5343	7.8526	13	153	1.84356096779132	0	1
"154"	13	66	3	-1	-1.2	0	11	-1	1	3.483	0.1468	-8.9737	-1.2074	-3.0039	2.2537	3.6631	-8.3711	11.2815	-8.5984	-4.6076	-0.6107	-6.1874	-2.2039	-0.83	-2.1608	2.0562	-4.3225	4.7684	3.3816	-0.3942	0.2834	0.3807	0.3204	0.4165	0.2376	0.2015	0.4223	0.2918	0.3735	0.3318	0.461	0.301	0.2452	0.377	0.3325	0.2635	0.3951	0.2988	0.3929	6.3268	1.5329	5.0166	13	154	1.24789399138386	0	1
"155"	13	11	3	0	0	0	9	1	1	2.474	-0.5967	-1.2221	1.1458	4.9558	13.1208	-7.1388	-1.1722	-5.8971	3.2888	-2.2041	-7.7549	-6.3574	-2.895	1.2631	1.1363	6.106	-1.1938	1.2696	-1.7334	4.3156	0.2383	0.2782	0.3525	0.2898	0.2112	0.3592	0.314	0.2631	0.236	0.5284	0.2164	0.4745	0.2347	0.4209	0.4869	0.3451	0.2303	0.3232	0.519	6.3216	1.4642	3.9577	13	155	0.905836273970296	1	0
"156"	13	59	3	-1	-1.2	1	8	1	0	2.445	0.8948	-0.2726	8.1414	4.5737	4.0036	3.8393	3.6103	1.5034	-4.5342	-5.8252	-0.2869	-5.9049	-9.4725	5.8501	-6.0374	-2.9252	-3.4736	-3.8614	-7.8471	-5.8258	0.333	0.333	0.333	0.333	0.333	0.333	0.333	0.333	0.333	0.333	0.333	0.333	0.333	0.333	0.333	0.333	0.333	0.333	0.333	6.327	1.5729	4.0292	13	156	0.894045122926835	1	0
"157"	13	31	3	-1	-1.2	1	20	1	0	6.685	0.7208	1.7348	-0.5727	-6.1524	-1.6623	-0.9737	10.1818	-3.7013	-13.9882	1.0548	1.0536	6.1656	-2.0409	0.1176	2.8884	-6.677	-2.2674	-3.4417	-2.6754	-4.0427	0.333	0.333	0.333	0.333	0.333	0.333	0.333	0.333	0.333	0.333	0.333	0.333	0.333	0.333	0.333	0.333	0.333	0.333	0.333	6.327	1.4627	8.1687	13	157	1.89986621055391	1	0
"158"	13	38	3	-1	-1.2	0	20	1	0	6.539	0.2712	6.9086	-3.6874	-6.1101	-3.6605	-7.2268	10.4447	0.3792	3.862	-2.6508	-3.4586	4.5918	-4.0304	-1.8523	-1.4403	-7.6242	3.3856	0.2581	-1.6077	-9.0692	0.5098	0.3432	0.3043	0.4714	0.2089	0.2443	0.2138	0.415	0.2643	0.4595	0.2917	0.4389	0.2312	0.3381	0.2682	0.47	0.347	0.2197	0.2902	6.3293	1.5118	8.0561	13	158	1.87778424857914	1	0
"159"	13	27	3	2	2.4	0	6	1	1	1.917	5.688	-0.5377	9.2738	-0.5095	5.8013	1.2287	11.8376	5.9076	-1.8577	-2.6756	2.2327	0.3892	-6.8767	-0.3375	-2.5824	4.0268	2.2272	8.514	9.3032	-1.4761	0.3336	0.4393	0.3326	0.2998	0.3953	0.3681	0.4413	0.2327	0.297	0.3716	0.2472	0.3791	0.273	0.2261	0.2693	0.2281	0.5146	0.4714	0.2055	6.3256	1.63	3.5507	13	159	0.650761464063507	1	0
"160"	13	42	3	4	4.8	0	6	1	1	1.991	3.8874	4.8268	13.8442	0.4578	10.1425	-0.9104	2.6779	6.4676	8.6591	9.3608	11.3272	0.3227	12.598	5.9393	-1.2295	5.0912	0.4315	-4.7853	1.6193	4.6363	0.5108	0.2934	0.2214	0.4034	0.4763	0.2098	0.383	0.2774	0.2291	0.3061	0.2039	0.4253	0.2104	0.3314	0.2923	0.447	0.3207	0.514	0.2741	6.3297	1.4523	3.4587	13	160	0.688637025082059	1	0
"161"	13	7	3	4	4.8	1	5	1	1	1.52	-0.0572	6.2545	8.8394	4.6726	-8.0085	7.9558	4.6551	9.0025	7.8409	6.2317	12.1965	1.0059	0.6797	6.5119	0.1205	11.9891	2.6531	-0.356	3.8649	10.7552	0.333	0.333	0.333	0.333	0.333	0.333	0.333	0.333	0.333	0.333	0.333	0.333	0.333	0.333	0.333	0.333	0.333	0.333	0.333	6.327	1.5266	3.0542	13	161	0.418710334858185	1	0
"162"	13	9	3	-2	-2.4	0	20	-1	1	7.156	-5.468	-4.1459	6.2475	-7.1335	-4.7733	-4.9011	-3.0817	-6.1389	-3.8111	-7.0268	-4.241	2.6546	-7.6448	9.9645	-7.5278	-1.1886	-4.914	5.1954	-0.8333	0.093	0.2538	0.4283	0.2615	0.3545	0.2215	0.2877	0.3853	0.2092	0.3723	0.3984	0.2185	0.417	0.4888	0.3166	0.3663	0.2667	0.4221	0.2753	0.3775	6.3213	1.4688	8.6237	13	162	1.96795116564647	0	1
"163"	13	19	3	1	1.2	1	6	1	1	1.774	0.3562	-0.5653	6.1883	-7.5516	6.1551	-2.4549	0.6658	-4.3992	-1.0478	11.9267	0.7426	2.7687	6.532	5.1201	1.3943	-7.1849	0.4416	0.1649	7.0554	-2.6027	0.333	0.333	0.333	0.333	0.333	0.333	0.333	0.333	0.333	0.333	0.333	0.333	0.333	0.333	0.333	0.333	0.333	0.333	0.333	6.327	1.6735	3.4579	13	163	0.573236883887388	1	0
"164"	13	54	3	1	1.2	0	6	1	1	1.722	2.0661	12.9607	0.3524	4.011	-2.5774	-3.0288	6.7151	0.4667	1.363	-2.7396	-4.4353	8.1934	1.9949	-1.9824	0.9711	0.2226	-2.9553	3.3654	-8.2445	8.6746	0.2112	0.2715	0.4208	0.211	0.329	0.3679	0.5255	0.2045	0.3524	0.2406	0.21	0.3105	0.2578	0.4029	0.2977	0.5174	0.2314	0.5011	0.4586	6.3218	1.5801	3.3063	13	164	0.543486406005539	1	0
"165"	13	12	3	1	1.2	0	10	1	1	3.324	-2.7431	16.1914	4.8761	3.9899	3	-2.0533	-2.0032	-2.4711	-2.2597	0.8259	-5.9413	4.642	3.1828	-3.3765	-2.0799	-1.9393	-0.6966	6.5462	2.5942	4.8039	0.2394	0.4166	0.3113	0.5164	0.2634	0.3151	0.5041	0.2544	0.3613	0.274	0.3213	0.2281	0.3522	0.4074	0.4718	0.2257	0.3839	0.2623	0.2204	6.3291	1.6762	5.025	13	165	1.2011688769932	1	0
"166"	13	20	3	2	2.4	1	6	1	1	1.762	-1.2256	5.8296	3.3567	6.0338	1.3077	3.7939	1.8146	-1.6027	5.844	-11.9966	-4.004	8.2623	1.9235	3.5566	-1.8983	11.1975	3.8919	2.8099	8.5348	1.4767	0.333	0.333	0.333	0.333	0.333	0.333	0.333	0.333	0.333	0.333	0.333	0.333	0.333	0.333	0.333	0.333	0.333	0.333	0.333	6.327	1.5804	3.363	13	166	0.566449527513988	1	0
"167"	13	6	3	2	2.4	1	8	1	1	2.432	-2.0424	1.2244	5.0525	12.2313	-1.7833	6.563	8.001	1.597	9.912	2.9681	3.4214	8.1044	-3.5297	-3.1969	0.6203	0.0171	0.5373	-1.1763	5.1571	-6.5506	0.333	0.333	0.333	0.333	0.333	0.333	0.333	0.333	0.333	0.333	0.333	0.333	0.333	0.333	0.333	0.333	0.333	0.333	0.333	6.327	1.5101	3.9497	13	167	0.888713964103921	1	0
"168"	13	34	3	2	2.4	1	8	1	1	2.456	1.8757	3.9392	0.6598	3.6895	3.4976	3.246	5.9968	8.4142	8.6672	10.0526	2.2347	-5.432	-8.8031	-0.3265	2.2144	7.3089	-0.4847	6.9245	-6.0425	0.4182	0.333	0.333	0.333	0.333	0.333	0.333	0.333	0.333	0.333	0.333	0.333	0.333	0.333	0.333	0.333	0.333	0.333	0.333	0.333	6.327	1.4342	3.9066	13	168	0.898534010284896	1	0
"169"	13	3	3	-1	-1.2	1	5	-1	1	1.604	-5.0542	-3.35	-5.5905	-4.6331	-0.0168	-5.5398	-0.6819	6.0139	1.2363	-2.6958	5.7911	-8.741	-5.7415	-0.7607	10.283	-1.5278	-6.6388	5.5511	-1.9196	0.8351	0.333	0.333	0.333	0.333	0.333	0.333	0.333	0.333	0.333	0.333	0.333	0.333	0.333	0.333	0.333	0.333	0.333	0.333	0.333	6.327	1.4866	3.105	13	169	0.472500509444323	0	1
"170"	13	64	3	-4	-4.8	0	11	-1	1	3.979	-1.2314	-9.1222	-9.6947	0.6857	-8.9977	-2.429	-10.9826	-3.3528	-5.5901	-8.9265	-12.2511	4.0196	1.0239	-5.1147	-0.9955	-11.3573	-0.5556	0.6371	-9.4725	-1.9185	0.2665	0.5191	0.3012	0.4026	0.3224	0.4967	0.2075	0.3768	0.4872	0.3257	0.2835	0.403	0.2057	0.3007	0.2356	0.2675	0.2388	0.4124	0.2736	6.3265	1.6235	5.6132	13	170	1.38103053144479	0	1
"171"	13	26	3	1	1.2	0	9	1	1	2.678	1.716	0.4589	-5.2519	8.9995	10.3533	6.1662	-3.2422	-5.4173	-7.7303	3.8178	-1.9298	3.947	1.227	-2.5661	-1.6379	-1.2097	3.2508	9.6215	1.1312	2.8832	0.5008	0.2441	0.2827	0.2021	0.2745	0.3627	0.2134	0.4285	0.457	0.4121	0.4822	0.3327	0.259	0.3633	0.2641	0.3525	0.2303	0.2663	0.3979	6.3261	1.6805	4.3623	13	171	0.985070247268981	1	0
"172"	13	67	3	0	0	0	19	1	1	5.992	-2.0274	-11.3442	2.7642	0.3892	-7.8945	-2.4822	10.4687	-1.7719	-3.5296	1.6382	3.2014	1.9124	-2.5564	4.9379	-0.0684	-0.5548	8.4673	0.6963	-2.0288	-1.5776	0.3753	0.3183	0.5275	0.276	0.3781	0.202	0.4945	0.2668	0.3164	0.3508	0.259	0.2232	0.2724	0.2266	0.4788	0.4128	0.2262	0.2911	0.4322	6.328	1.6205	7.626	13	172	1.79042524621492	1	0
"173"	13	60	3	0	0	1	17	1	1	5.593	0.2743	0.1929	-7.0077	2.6562	-7.1638	2.4029	6.0974	-8.4263	6.0753	-2.7366	-3.1632	3.0621	1.612	5.6192	10.5597	0.8731	-4.3337	-3.8763	-4.0826	-0.3858	0.333	0.333	0.333	0.333	0.333	0.333	0.333	0.333	0.333	0.333	0.333	0.333	0.333	0.333	0.333	0.333	0.333	0.333	0.333	6.327	1.5846	7.1775	13	173	1.72151581583945	1	0
"174"	13	58	3	-2	-2.4	1	5	1	0	1.661	-1.5772	2.2491	1.5127	1.4121	7.7119	-5.1996	-7.5355	-3.9055	-0.5826	-0.032	-2.2116	0.1705	-2.0894	-8.648	-1.3508	-14.219	-6.8138	-7.5793	-2.9206	3.9293	0.333	0.333	0.333	0.333	0.333	0.333	0.333	0.333	0.333	0.333	0.333	0.333	0.333	0.333	0.333	0.333	0.333	0.333	0.333	6.327	1.42	3.0779	13	174	0.507419830631158	1	0
"175"	13	32	3	0	0	1	15	-1	1	4.921	2.4635	-0.4899	12.4145	-3.4412	-5.9846	-8.9593	2.3277	-1.8928	-2.8798	8.9237	-3.4805	3.8817	-0.3004	1.9662	0.6399	-1.89	-3.6536	-3.6081	1.0554	4.8599	0.333	0.333	0.333	0.333	0.333	0.333	0.333	0.333	0.333	0.333	0.333	0.333	0.333	0.333	0.333	0.333	0.333	0.333	0.333	6.327	1.5107	6.4548	13	175	1.59351176188384	0	1
"176"	13	1	3	-4	-4.8	1	6	-1	1	1.838	-6.9788	-5.5798	-9.5976	-10.498	-12.1907	2.2813	-0.0507	-7.2608	-10.0418	6.4793	-2.4236	-1.3498	-5.9783	-6.9155	0.1008	-3.7933	-3.5586	-5.1105	-11.8605	-0.6882	0.333	0.333	0.333	0.333	0.333	0.333	0.333	0.333	0.333	0.333	0.333	0.333	0.333	0.333	0.333	0.333	0.333	0.333	0.333	6.327	1.574	3.4223	13	176	0.608678023933495	0	1
"177"	13	21	3	4	4.8	1	10	1	1	3.023	2.5383	-0.5723	6.4159	-7.9323	7.9627	-0.0203	8.0157	7.2744	8.3358	3.4656	10.1132	5.5188	12.6939	9.6043	5.3041	1.2968	11.0547	4.4089	5.1537	-2.9334	0.333	0.333	0.333	0.333	0.333	0.333	0.333	0.333	0.333	0.333	0.333	0.333	0.333	0.333	0.333	0.333	0.333	0.333	0.333	6.327	1.531	4.5737	13	177	1.10624971579732	1	0
"178"	13	40	3	1	1.2	0	9	1	1	2.791	2.7806	3.0036	-5.5955	4.7537	0.1301	2.057	8.6719	12.5323	2.8359	-9.1452	-1.1742	-0.7324	-1.0238	4.0819	6.0445	2.8849	-3.4856	1.5425	-4.659	-1.832	0.4221	0.2955	0.2143	0.4149	0.211	0.4424	0.3459	0.3817	0.2885	0.4135	0.3088	0.2559	0.3441	0.2424	0.3541	0.3971	0.2686	0.3882	0.3395	6.3282	1.6623	4.4581	13	178	1.02639995455419	1	0
"179"	13	25	3	0	0	0	10	1	1	3.114	0.3716	-3.5903	7.8342	1.2432	9.8091	-4.8913	-0.4633	-2.7356	5.4101	1.9614	-1.937	3.4015	1.9269	-6.1701	-6.3042	2.5684	6.8976	0.4524	-7.3294	-6.4905	0.3686	0.2616	0.2876	0.2342	0.4834	0.3232	0.267	0.3324	0.2584	0.4634	0.3378	0.2844	0.2164	0.2974	0.411	0.2913	0.4328	0.2957	0.4707	6.3176	1.6021	4.7314	13	179	1.13590807341181	1	0
"180"	13	15	3	-4	-4.8	1	17	-1	1	5.386	-2.9424	1.0063	-1.5929	-10.2405	-0.6791	-0.3891	-7.216	-7.0232	-8.5169	-2.4404	5.0316	-10.6803	-15.2492	0.8594	-6.2251	-8.0884	-0.8147	-7.524	-5.9037	-8.2485	0.333	0.333	0.333	0.333	0.333	0.333	0.333	0.333	0.333	0.333	0.333	0.333	0.333	0.333	0.333	0.333	0.333	0.333	0.333	6.327	1.5322	6.9201	13	180	1.68380299438941	0	1
"181"	13	24	3	-1	-1.2	0	20	1	0	7.118	3.5904	-1.208	-5.2953	-8.982	3.5375	-7.6923	-5.6311	-7.681	-1.7676	0.7543	3.1965	-9.1656	-0.8578	4.2943	5.0686	4.6605	-6.9848	3.4686	1.5331	2.1655	0.3565	0.474	0.2423	0.2713	0.4304	0.3381	0.2416	0.4221	0.2964	0.4094	0.2353	0.3155	0.2788	0.3472	0.3966	0.2878	0.4735	0.2986	0.2184	6.3338	1.479	8.6021	13	181	1.962626787088	1	0
"182"	13	57	3	-4	-4.8	1	20	-1	1	6.543	-2.5335	-2.0835	-3.7714	-6.7647	-10.0947	0.6924	-12.4341	-1.0997	-5.1375	1.1377	-6.7981	-6.4791	-7.3183	2.2764	3.826	-7.0929	-5.3147	-14.4959	-11.3406	-2.2814	0.333	0.333	0.333	0.333	0.333	0.333	0.333	0.333	0.333	0.333	0.333	0.333	0.333	0.333	0.333	0.333	0.333	0.333	0.333	6.327	1.4715	8.0108	13	182	1.8783957758876	0	1
"183"	13	48	3	2	2.4	1	13	1	1	4.305	6.0133	-9.6123	1.8011	-0.9889	-0.0745	8.0037	-6.853	3.3952	7.04	6.4117	2.6987	10.2089	-1.3576	4.3408	6.0038	-0.1868	3.4398	-3.03	5.079	7.5035	0.333	0.333	0.333	0.333	0.333	0.333	0.333	0.333	0.333	0.333	0.333	0.333	0.333	0.333	0.333	0.333	0.333	0.333	0.333	6.327	1.6251	5.9389	13	183	1.45977713787969	1	0
"184"	13	17	3	-1	-1.2	1	13	1	0	4.179	-2.8146	1.3113	-4.9024	-5.985	1.5563	-0.8875	-2.4563	1.0121	1.4986	6.0835	1.1167	4.5375	-12.1222	5.4538	-8.3348	-0.1293	-3.5857	-3.7355	-8.1241	4.6505	0.333	0.333	0.333	0.333	0.333	0.333	0.333	0.333	0.333	0.333	0.333	0.333	0.333	0.333	0.333	0.333	0.333	0.333	0.333	6.327	1.6165	5.8132	13	184	1.43007198346578	1	0
"185"	13	39	3	0	0	0	16	1	0	5.261	2.5135	6.6148	4.8562	-0.2339	-1.3251	-3.0933	-2.2578	1.7557	7.4388	-2.3264	-8.6743	3.9063	-9.6613	3.4565	2.3004	2.1651	-6.5794	0.5649	5.5534	-6.9017	0.2409	0.335	0.4701	0.2786	0.2267	0.3522	0.2009	0.3997	0.2854	0.5036	0.2804	0.2265	0.4161	0.4918	0.3586	0.4884	0.2155	0.2451	0.3155	6.3309	1.6221	6.895	13	185	1.66032112274867	1	0
"186"	13	29	3	-4	-4.8	1	12	-1	1	3.896	-0.981	-6.1384	-2.9126	-11.0347	-8.5767	1.9637	-4.6201	-9.0582	-9.4104	-11.1899	-9.8498	2.6623	-6.209	1.3333	-5.9157	5.3996	-7.4715	-5.7964	-7.5761	0.0073	0.333	0.333	0.333	0.333	0.333	0.333	0.333	0.333	0.333	0.333	0.333	0.333	0.333	0.333	0.333	0.333	0.333	0.333	0.333	6.327	1.4093	5.3134	13	186	1.35995038578029	0	1
"187"	13	49	3	4	4.8	1	19	1	1	6.231	2.4655	7.0732	9.0267	2.2154	-1.5552	0.5259	5.5467	6.829	-2.0559	4.4305	5.8961	9.8279	7.6445	-3.9573	-0.2359	7.2005	2.7072	6.4504	6.5677	17.655	0.333	0.333	0.333	0.333	0.333	0.333	0.333	0.333	0.333	0.333	0.333	0.333	0.333	0.333	0.333	0.333	0.333	0.333	0.333	6.327	1.4796	7.715	13	187	1.82953683356208	1	0
"188"	13	16	3	-2	-2.4	1	18	-1	1	5.812	-3.8	-1.1325	-11.3053	-7.6849	2.7183	2.7535	-1.0526	2.1929	-7.5695	4.147	-9.9798	4.7338	-8.1667	-2.6384	-3.5619	-4.7372	6.2882	-3.8396	-4.1977	0.2894	0.333	0.333	0.333	0.333	0.333	0.333	0.333	0.333	0.333	0.333	0.333	0.333	0.333	0.333	0.333	0.333	0.333	0.333	0.333	6.327	1.5095	7.3294	13	188	1.75992474570804	0	1
"189"	13	43	3	-4	-4.8	1	13	-1	1	4.223	-2.6601	-9.1995	0.8982	0.4552	-1.4193	9.3987	-11.3787	-2.3043	-3.6835	-8.2506	-11.5596	-10.3642	-7.5515	-4.226	-4.2586	-5.4082	-7.9745	-5.9101	-2.0601	-9.7525	0.333	0.333	0.333	0.333	0.333	0.333	0.333	0.333	0.333	0.333	0.333	0.333	0.333	0.333	0.333	0.333	0.333	0.333	0.333	6.327	1.4129	5.64	13	189	1.44054577595181	0	1
"190"	13	56	3	4	4.8	0	4	1	1	1.145	2.4327	6.7026	10.6861	0.7922	12.3706	2.1922	-3.4219	2.3495	10.4961	10.0094	-0.3738	4.7696	-3.2348	5.9361	2.1389	11.7371	-2.3827	8.7058	6.6912	7.4347	0.387	0.2131	0.2386	0.4032	0.4546	0.3034	0.4669	0.353	0.312	0.2057	0.5141	0.2294	0.3474	0.4846	0.3129	0.3762	0.2674	0.2046	0.2577	6.3319	1.6236	2.7791	13	190	0.135404637006203	1	0
"191"	13	5	3	1	1.2	1	8	1	1	2.522	4.4134	1.1614	-5.0556	1.2239	2.9212	0.8708	1.4522	-6.7282	-0.5648	-5.4289	2.2033	8.1894	9.1331	2.778	5.7224	3.8253	-6.4373	10.2782	-3.6497	-2.3204	0.333	0.333	0.333	0.333	0.333	0.333	0.333	0.333	0.333	0.333	0.333	0.333	0.333	0.333	0.333	0.333	0.333	0.333	0.333	6.327	1.516	4.0396	13	191	0.925052237542728	1	0
"192"	13	61	3	1	1.2	1	10	1	1	3.146	0.3898	2.8644	-6.4041	3.7448	-2.4566	6.3659	1.9129	-6.9935	9.268	4.3738	-2.7726	9.5069	-5.798	5.8823	0.8417	-5.7646	-0.3219	4.0195	1.6723	5.0546	0.333	0.333	0.333	0.333	0.333	0.333	0.333	0.333	0.333	0.333	0.333	0.333	0.333	0.333	0.333	0.333	0.333	0.333	0.333	6.327	1.4221	4.5627	13	192	1.14613180463609	1	0
"193"	13	13	3	2	2.4	0	11	1	1	3.491	4.8698	4.9188	2.6897	10.9019	3.1427	3.0915	2.0951	1.9635	-2.0743	9.4875	9.7288	-4.8209	6.5584	1.6953	4.1441	0.1881	-4.4792	-0.6497	-8.3957	3.4549	0.2262	0.5312	0.3956	0.2632	0.223	0.2627	0.3488	0.3142	0.2681	0.4674	0.2992	0.2684	0.3031	0.2416	0.3431	0.4483	0.5027	0.3288	0.2906	6.3265	1.4556	4.9586	13	193	1.2501882281229	1	0
"194"	13	70	3	4	4.8	0	3	1	1	1.216	2.9092	11.5761	14.779	4.9568	3.9706	2.6218	-0.5684	-0.6511	6.9259	4.2395	-2.2988	0.5307	6.7854	8.0585	11.6277	0.6315	1.9698	11.3343	-3.1625	7.8859	0.3556	0.4774	0.4118	0.2388	0.2685	0.3478	0.4235	0.2802	0.2114	0.4053	0.307	0.3952	0.2594	0.4232	0.2704	0.4434	0.3254	0.2207	0.2652	6.3301	1.4066	2.6338	13	194	0.195566783543975	1	0
"195"	13	47	3	1	1.2	1	8	1	1	2.576	2.3504	-0.9473	-3.5232	7.7115	2.6854	4.4909	1.7052	3.8802	3.3768	-0.4246	5.9451	-2.4538	-9.7453	-1.8311	12.8968	2.277	-5.1544	-4.1291	3.0743	1.9426	0.333	0.333	0.333	0.333	0.333	0.333	0.333	0.333	0.333	0.333	0.333	0.333	0.333	0.333	0.333	0.333	0.333	0.333	0.333	6.327	1.4357	4.0264	13	195	0.946237808242107	1	0
"196"	13	41	3	2	2.4	0	16	1	1	5.215	0.0693	-0.6526	-1.1153	11.6505	-1.2044	-2.5383	-2.5546	4.7326	2.6873	6.3597	-0.2888	2.7233	10.1863	2.5457	6.1132	-5.3232	-2.3858	4.4392	-0.5548	12.2604	0.2085	0.4275	0.3419	0.38	0.2129	0.326	0.4192	0.3779	0.3222	0.3583	0.3304	0.3678	0.2192	0.2948	0.4919	0.2063	0.3117	0.4029	0.3309	6.3304	1.6498	6.8827	13	196	1.65153908845274	1	0
"197"	13	63	3	4	4.8	1	6	1	1	1.73	5.9674	3.8324	8.061	6.1384	1.8124	12.4859	3.2344	-2.2849	1.1056	-0.0248	8.172	4.9021	-3.7439	4.9425	17.3328	7.1105	10.2734	2.2403	1.7828	0.7987	0.333	0.333	0.333	0.333	0.333	0.333	0.333	0.333	0.333	0.333	0.333	0.333	0.333	0.333	0.333	0.333	0.333	0.333	0.333	6.327	1.5273	3.2637	13	197	0.548121408509688	1	0
"198"	13	53	3	0	0	0	16	-1	0	5.432	-3.0626	2.6137	-4.6802	6.5624	-2.6971	-0.7691	-1.3268	0.8461	1.1608	-12.5505	1.7934	-9.2886	1.4721	4.9122	-1.4983	0.1868	4.2952	1.0011	6.3778	6.524	0.3535	0.2012	0.4865	0.3588	0.4258	0.289	0.3426	0.2017	0.2848	0.2336	0.3468	0.4908	0.4048	0.4453	0.2223	0.3539	0.2331	0.4211	0.238	6.3336	1.4926	6.9331	13	198	1.69230739025639	0	1
"199"	13	28	3	4	4.8	0	5	1	1	1.423	0.9766	9.7332	6.6671	9.9259	1.5768	4.0221	8.3995	8.7015	4.9923	4.6215	11.7211	3.9306	8.9357	-4.294	4.7319	10.5608	-4.1986	-0.2369	-3.0991	7.1624	0.2776	0.3801	0.2507	0.3098	0.3914	0.5252	0.3857	0.2655	0.2255	0.4963	0.407	0.2598	0.4373	0.227	0.4259	0.2582	0.2096	0.3388	0.2595	6.3309	1.6753	3.1072	13	199	0.352767319107715	1	0
"200"	13	65	3	-2	-2.4	0	11	1	0	3.401	-0.5563	1.409	-3.8017	-1.7965	-4.2625	-0.0589	-2.2447	-12.0745	-0.833	0.5468	0.3259	2.4048	1.4269	-8.5545	1.0258	3.9174	-3.6706	-16.575	-3.6658	0.8229	0.3813	0.3097	0.2217	0.4157	0.3089	0.2458	0.4559	0.2342	0.3284	0.2556	0.3852	0.278	0.2342	0.2702	0.5001	0.4418	0.4009	0.2806	0.3859	6.3343	1.5091	4.9182	13	200	1.22406950602506	1	0
"201"	13	52	3	-1	-1.2	0	18	1	0	5.977	-4.0742	-1.6351	1.2316	1.6962	-8.7636	-3.5509	5.3392	1.6753	2.1092	-9.3543	-3.4165	-3.6995	-10.4753	9.0177	4.9311	-0.0142	-2.1428	-1.9586	-2.5576	1.3738	0.4603	0.315	0.2276	0.4284	0.3825	0.442	0.3949	0.2351	0.4301	0.2725	0.4258	0.2342	0.3348	0.2739	0.2407	0.3279	0.3656	0.209	0.3331	6.3334	1.52	7.4939	13	201	1.78791876984212	1	0
"202"	13	23	3	-2	-2.4	0	19	-1	1	6.181	0.8469	-6.3111	0.5931	-6.3393	-6.4671	-9.9611	-0.9735	2.9458	-1.5494	1.3066	3.581	3.475	-7.4082	2.9023	0.0491	-5.5317	4.3501	-5.0341	-10.3564	-9.1619	0.4091	0.2398	0.2678	0.4007	0.3014	0.2277	0.3052	0.4025	0.2972	0.43	0.5192	0.3023	0.2185	0.5119	0.4159	0.2969	0.2465	0.2112	0.3248	6.3285	1.6237	7.7988	13	202	1.82148007067714	0	1
"203"	13	68	3	1	1.2	0	17	1	1	5.668	-1.3974	1.6299	-1.9779	4.1421	1.8868	-4.9177	3.1783	-4.615	5.5576	10.7947	-5.2802	9.3748	-1.8599	-1.4409	1.1365	0.2335	-3.0642	-2.0856	1.4433	10.8881	0.2469	0.3643	0.269	0.2176	0.2804	0.4459	0.4717	0.339	0.2937	0.4794	0.4342	0.2057	0.4334	0.4012	0.3017	0.2763	0.3036	0.2402	0.3185	6.323	1.5786	7.2685	13	203	1.73483632182843	1	0
"204"	13	45	3	-1	-1.2	1	16	-1	1	5.23	-2.3337	-1.8899	-7.5564	-6.7959	9.3634	-1.226	8.463	-8.037	3.1823	-3.2113	1.2085	0.5006	-5.0708	-6.5947	-0.5854	4.1149	3.8126	-3.6199	-1.4758	-4.818	0.333	0.333	0.333	0.333	0.333	0.333	0.333	0.333	0.333	0.333	0.333	0.333	0.333	0.333	0.333	0.333	0.333	0.333	0.333	6.327	1.7317	6.9813	13	204	1.65441127807683	0	1
"205"	13	33	3	1	1.2	1	8	-1	0	2.483	-2.913	-4.7517	-6.8695	3.0646	1.1993	-0.9038	0.2696	4.972	-2.7949	12.2093	1.653	0.5204	-3.8443	2.4195	9.1731	-1.2873	-1.6107	-0.9739	9.9939	3.8615	0.333	0.333	0.333	0.333	0.333	0.333	0.333	0.333	0.333	0.333	0.333	0.333	0.333	0.333	0.333	0.333	0.333	0.333	0.333	6.327	1.4521	3.9509	13	205	0.90946750652603	0	1
"206"	13	37	3	-2	-2.4	0	10	1	0	2.936	-6.1325	1.8068	-13.0627	-4.1477	4.4131	-3.2111	-2.9664	1.2607	-1.6008	-3.5985	1.3388	2.7316	0.984	0.0941	3.9358	-1.8931	-4.9336	-5.6568	-1.914	-14.1414	0.5227	0.2522	0.3193	0.2786	0.2233	0.2708	0.3195	0.2575	0.4095	0.3808	0.2635	0.2229	0.3664	0.4973	0.3994	0.3319	0.4768	0.3292	0.2071	6.3286	1.4888	4.4361	13	206	1.07704811075227	1	0
"207"	13	62	3	2	2.4	1	20	1	1	7.038	1.5941	-0.9038	9.2469	6.938	-3.6285	5.7619	-1.8912	-8.0035	4.0303	4.5063	8.9357	2.7713	-0.0118	-4.1273	1.0885	2.9755	9.0606	-2.7056	6.9333	7.0544	0.333	0.333	0.333	0.333	0.333	0.333	0.333	0.333	0.333	0.333	0.333	0.333	0.333	0.333	0.333	0.333	0.333	0.333	0.333	6.327	1.4067	8.4555	13	207	1.95132403889939	1	0
"208"	13	22	3	-4	-4.8	0	12	-1	1	3.542	-3.2139	3.2491	-3.4622	-9.6636	-7.2429	-0.8432	-7.0801	-8.9437	-6.2204	-12.4057	-6.9455	3.5386	3.9211	-7.0634	-11.3594	-7.8364	-7.9922	0.3706	-1.2779	-6.5125	0.406	0.2465	0.2874	0.2203	0.2776	0.2457	0.4603	0.3767	0.2807	0.2269	0.4362	0.5272	0.3802	0.2368	0.3316	0.4335	0.264	0.2302	0.466	6.3338	1.4614	5.0096	13	208	1.26469153936064	0	1
"209"	13	55	3	2	2.4	0	12	1	1	3.906	-0.7443	11.3181	0.1986	-2.176	-1.2698	-4.0497	-0.1501	3.8642	9.0631	6.7475	0.0876	-4.8088	2.7629	2.9508	4.6363	11.7077	2.6002	1.3773	8.2567	-4.4927	0.3885	0.2104	0.3586	0.4973	0.2815	0.2278	0.2796	0.3634	0.521	0.2104	0.4951	0.3679	0.3051	0.238	0.375	0.3438	0.3083	0.2064	0.3452	6.3232	1.6289	5.5401	13	209	1.36251383245449	1	0
"210"	13	51	3	-2	-2.4	0	13	-1	1	4.22	-2.7357	-1.1598	-3.1805	3.9085	0.978	3.62	-13.577	0.7176	-1.5939	1.7791	-4.22	-2.6617	-7.7396	-10.1219	-11.8154	2.1629	-3.4913	-2.1108	0.3428	2.9126	0.3746	0.2839	0.3663	0.2269	0.3496	0.38	0.2393	0.3824	0.4825	0.2366	0.4895	0.2479	0.2781	0.2351	0.2008	0.3316	0.4187	0.4706	0.3244	6.3188	1.6683	5.8872	13	210	1.43983512804792	0	1
"211"	13	19	4	1	1.2	1	7	1	1	2.266	-0.0524	-0.9732	-5.0409	6.5767	-10.8037	9.3635	1.7556	2.7506	2.0264	2.9217	-4.5551	-6.8336	4.8219	-1.8136	2.9539	1.2917	4.3445	3.6999	3.7943	8.1484	0.333	0.333	0.333	0.333	0.333	0.333	0.333	0.333	0.333	0.333	0.333	0.333	0.333	0.333	0.333	0.333	0.333	0.333	0.333	6.327	1.4521	3.7331	13	211	0.818016162605815	1	0
"212"	13	21	4	4	4.8	1	5	1	1	1.565	9.2376	5.8618	4.1065	1.4196	3.7026	1.9905	5.7749	0.527	8.857	16.9759	-5.3119	10.1105	5.7035	8.3533	4.1239	2.2551	3.3016	2.708	-2.8405	8.8182	0.333	0.333	0.333	0.333	0.333	0.333	0.333	0.333	0.333	0.333	0.333	0.333	0.333	0.333	0.333	0.333	0.333	0.333	0.333	6.327	1.5968	3.1826	13	212	0.447885823992117	1	0
"213"	13	37	4	-2	-2.4	0	14	-1	1	4.753	0.9121	-10.3886	-2.9988	-0.1537	9.0518	-5.7344	4.221	2.6619	-3.8393	-6.5372	-7.2476	-1.5941	-4.43	-0.3413	2.3201	2.4413	-2.5133	-11.2741	-4.332	-6.5363	0.2065	0.3679	0.5019	0.3815	0.2238	0.2892	0.2037	0.3598	0.2685	0.3128	0.3665	0.4318	0.5301	0.3471	0.3105	0.2177	0.3407	0.417	0.2575	6.3343	1.4049	6.1705	13	213	1.55877599763187	0	1
"214"	13	39	4	0	0	0	8	1	0	2.603	1.9858	0.4803	-1.2012	-8.0696	3.6626	4.9347	1.6935	-4.2769	2.8873	1.4108	6.7846	-13.8846	1.9564	-1.8199	1.4907	-5.004	3.9259	2.791	-3.6136	4.0593	0.347	0.4308	0.3976	0.247	0.3611	0.2608	0.3879	0.2123	0.2416	0.2808	0.4146	0.508	0.4797	0.5279	0.2031	0.3105	0.2072	0.2918	0.223	6.3327	1.4675	4.0871	13	214	0.956664626012428	1	0
"215"	13	25	4	0	0	0	14	1	0	4.659	-2.1377	0.1901	-12.0898	-2.1191	0.5543	9.7366	3.2639	-1.7921	2.8204	2.1996	1.6783	-2.9239	5.7115	7.3615	-4.1984	-0.365	2.0714	2.1892	-3.5398	-7.4954	0.3746	0.2155	0.3802	0.2397	0.4911	0.2515	0.2035	0.4998	0.3258	0.2675	0.4795	0.229	0.2795	0.5146	0.3636	0.3248	0.2542	0.341	0.2849	6.3202	1.4755	6.1431	13	215	1.53880083283466	1	0
"216"	13	47	4	1	1.2	1	14	1	1	4.479	-1.8676	-1.6136	5.0423	-1.8726	2.9877	-5.2923	0.2721	3.636	-3.0339	0.4624	1.2364	4.3736	-5.3587	10.5559	-8.4305	2.3121	3.5933	1.5771	11.6416	3.9108	0.333	0.333	0.333	0.333	0.333	0.333	0.333	0.333	0.333	0.333	0.333	0.333	0.333	0.333	0.333	0.333	0.333	0.333	0.333	6.327	1.5242	6.0128	13	216	1.49939980722516	1	0
"217"	13	44	4	-2	-2.4	1	9	-1	1	2.716	-4.5809	-11.714	-8.3494	8.2908	3.3088	-3.6303	-1.1039	-5.6493	1.3724	-1.0872	-6.2034	-3.4302	-5.8768	2.0943	5.3552	0.7576	-0.0082	-6.6665	-2.4726	-8.8985	0.333	0.333	0.333	0.333	0.333	0.333	0.333	0.333	0.333	0.333	0.333	0.333	0.333	0.333	0.333	0.333	0.333	0.333	0.333	6.327	1.5135	4.2335	13	217	0.99916020969645	0	1
"218"	13	53	4	0	0	0	11	1	0	2.897	2.1974	3.4469	8.7943	-10.8341	-3.4547	-4.3024	5.8846	0.644	5.6638	3.046	-0.1761	-1.3581	-4.0414	-1.1146	2.8909	0.7195	3.5995	-0.6449	-3.4721	-9.3464	0.249	0.2797	0.3185	0.3467	0.2117	0.3875	0.2475	0.3275	0.2665	0.2375	0.352	0.4868	0.2422	0.4489	0.4007	0.2129	0.442	0.416	0.4438	6.3175	1.6677	4.5647	13	218	1.06367571878721	1	0
"219"	13	9	4	-2	-2.4	0	15	-1	1	4.603	-6.3506	-6.8117	-2.1797	-3.2091	-0.9252	-4.9046	2.0931	-1.9911	-9.9228	-0.3793	-0.0329	-3.6055	-9.3986	-8.9926	-2.0639	7.3939	-3.2543	-0.3196	-3.2614	9.1824	0.2918	0.2254	0.4009	0.3175	0.5078	0.2006	0.4087	0.494	0.228	0.4221	0.2385	0.3002	0.2549	0.2929	0.4701	0.3571	0.2117	0.3698	0.3344	6.3264	1.6407	6.2541	13	219	1.5267082648351	0	1
"220"	13	43	4	-4	-4.8	1	17	-1	1	5.639	-2.1178	-4.2956	-0.334	-7.6326	1.7403	3.3377	0.4782	-3.998	-3.4836	-9.0953	-7.383	-5.9463	0.9743	-8.2997	-4.3846	-3.6696	-12.7336	-8.7665	-4.9336	-17.1002	0.333	0.333	0.333	0.333	0.333	0.333	0.333	0.333	0.333	0.333	0.333	0.333	0.333	0.333	0.333	0.333	0.333	0.333	0.333	6.327	1.4012	7.0567	13	220	1.72970674482505	0	1
"221"	13	29	4	-4	-4.8	1	10	1	0	3.123	-2.3917	-0.1373	-0.9348	-2.8016	-7.1927	-0.0967	-1.8382	-3.7871	-3.3868	-10.858	-7.6236	-5.2316	-7.2806	-9.4242	5.0535	-2.3026	-1.2843	-18.0683	-8.0858	-9.8495	0.333	0.333	0.333	0.333	0.333	0.333	0.333	0.333	0.333	0.333	0.333	0.333	0.333	0.333	0.333	0.333	0.333	0.333	0.333	6.327	1.698	4.8401	13	221	1.13879407830094	1	0
"222"	13	13	4	2	2.4	0	15	1	1	4.712	0.746	13.6986	2.7628	-0.4955	-4.6777	8.632	1.7119	3.0752	-4.528	5.5398	-1.7513	-5.594	-3.7195	-0.8377	3.7072	7.4715	5.4551	4.154	5.6873	6.535	0.3836	0.2021	0.3033	0.4844	0.4503	0.253	0.3689	0.305	0.4421	0.2715	0.2229	0.3031	0.2704	0.3634	0.242	0.524	0.3346	0.3644	0.2404	6.3294	1.6602	6.3794	13	222	1.55011244634929	1	0
"223"	13	12	4	1	1.2	0	19	1	1	5.902	-0.4795	-1.4106	8.4817	1.6809	2.9415	2.1547	-6.5208	0.6499	6.9522	-2.827	-3.6292	-4.4023	8.3033	-1.0996	-2.5843	-5.4047	-0.2018	6.947	9.8234	6.0668	0.2311	0.3028	0.3289	0.2132	0.2769	0.4107	0.2496	0.4297	0.2715	0.2282	0.4755	0.3597	0.2762	0.3376	0.4758	0.3719	0.2265	0.3812	0.4855	6.3324	1.7231	7.6364	13	223	1.77529127652075	1	0
"224"	13	48	4	2	2.4	1	12	-1	0	3.672	-0.4313	-0.4433	11.8828	4.335	0.7947	3.7642	3.4226	1.2651	0.2595	-0.7524	2.8241	-1.0538	-2.5163	9.7657	13.874	4.0603	-3.5113	-5.1291	-0.2658	5.3092	0.333	0.333	0.333	0.333	0.333	0.333	0.333	0.333	0.333	0.333	0.333	0.333	0.333	0.333	0.333	0.333	0.333	0.333	0.333	6.327	1.5463	5.2228	13	224	1.30073647275824	0	1
"225"	13	38	4	-1	-1.2	0	16	-1	1	4.81	0.0145	-9.1702	-0.2434	-2.1344	2.4279	-1.0824	0.7462	-1.0057	-7.5337	1.9655	10.5594	-5.3407	6.0222	-4.9898	-3.9834	2.3849	3.2438	-6.7833	-0.3159	-7.5484	0.2666	0.3206	0.2425	0.3883	0.2064	0.4304	0.2779	0.3373	0.2989	0.4502	0.5072	0.2424	0.2139	0.2736	0.223	0.4998	0.455	0.4036	0.2881	6.3256	1.5972	6.4109	13	225	1.57069708411767	0	1
"226"	13	58	4	-2	-2.4	1	20	-1	1	6.587	-6.6498	-9.7746	0.0257	0.3053	-0.5292	-4.0513	4.2559	-3.7225	8.4765	-6.4274	2.4747	-3.4934	-11.3219	3.9313	-3.7698	-4.4894	2.2908	-5.2235	-4.3206	-6.5251	0.333	0.333	0.333	0.333	0.333	0.333	0.333	0.333	0.333	0.333	0.333	0.333	0.333	0.333	0.333	0.333	0.333	0.333	0.333	6.327	1.5762	8.1713	13	226	1.88509800965856	0	1
"227"	13	68	4	1	1.2	0	10	1	1	3.109	5.4035	0.8696	-2.0536	12.2563	1.4744	-2.7952	2.7178	3.8182	1.0394	2.8209	-7.6464	7.7031	-0.5903	3.3882	5.1032	-1.6261	-4.4556	-9.0361	1.9202	3.7525	0.5322	0.2019	0.2989	0.3934	0.2168	0.2729	0.4767	0.2088	0.416	0.23	0.4953	0.2317	0.3438	0.3027	0.2065	0.3586	0.3257	0.3627	0.4424	6.3173	1.4339	4.5433	13	227	1.13430113107662	1	0
"228"	13	57	4	-4	-4.8	1	5	-1	1	1.405	-8.0989	-2.7767	-6.6064	-8.5248	-2.0118	-11.0047	-0.2181	-0.7366	-7.8374	-5.9021	-12.6448	-9.7767	-8.7398	4.5213	0.0964	-7.28	4.7971	-7.0482	-5.5007	-0.8286	0.333	0.333	0.333	0.333	0.333	0.333	0.333	0.333	0.333	0.333	0.333	0.333	0.333	0.333	0.333	0.333	0.333	0.333	0.333	6.327	1.6109	3.0394	13	228	0.340037302785709	0	1
"229"	13	26	4	1	1.2	0	9	1	1	2.787	4.383	1.6318	-1.2029	5.571	-3.4973	9.1236	-4.8909	10.1066	5.2357	3.0258	-4.3642	4.2242	-2.7552	7.6904	-0.2056	-2.635	-3.7063	-1.0617	-6.4251	3.9907	0.2929	0.2002	0.3929	0.2894	0.5103	0.2598	0.2135	0.4159	0.467	0.3121	0.2731	0.2035	0.3887	0.2747	0.4046	0.3464	0.2185	0.3736	0.4831	6.3202	1.5426	4.3375	13	229	1.02496574849981	1	0
"230"	13	60	4	0	0	1	5	1	1	1.336	-1.4266	2.4225	10.1909	6.0877	-12.151	4.8277	-5.0035	-6.5873	-0.8163	0.5295	2.6907	2.6059	0.1979	0.1908	2.7065	-4.488	-1.2151	1.3423	-6.1742	2.8323	0.333	0.333	0.333	0.333	0.333	0.333	0.333	0.333	0.333	0.333	0.333	0.333	0.333	0.333	0.333	0.333	0.333	0.333	0.333	6.327	1.557	2.9035	13	230	0.289680075114454	1	0
"231"	13	18	4	0	0	1	9	1	1	2.839	0.3235	-1.4388	-5.455	-3.9098	2.6559	5.9588	-5.1576	7.1478	9.348	-3.8301	-1.275	3.128	7.2003	-2.4707	-2.7601	-8.5855	-4.202	-0.1273	4.6222	-2.6103	0.333	0.333	0.333	0.333	0.333	0.333	0.333	0.333	0.333	0.333	0.333	0.333	0.333	0.333	0.333	0.333	0.333	0.333	0.333	6.327	1.7126	4.5734	13	231	1.04345187749083	1	0
"232"	13	69	4	2	2.4	0	13	1	1	4.097	5.2202	-4.7428	11.4441	-3.4612	4.7176	4.7599	8.9703	2.2364	2.3376	-2.3344	-0.9875	2.5693	7.9445	0.8641	10.6486	-2.8443	-2.3621	4.9658	-4.3066	2.7402	0.4842	0.296	0.2549	0.5275	0.2109	0.3892	0.2892	0.228	0.425	0.2887	0.4354	0.2218	0.3992	0.3266	0.3008	0.2553	0.2939	0.3883	0.3086	6.3235	1.7199	5.8311	13	232	1.41025499856473	1	0
"233"	13	1	4	-4	-4.8	1	6	-1	1	1.772	-4.5127	-5.076	-4.4273	-10.6695	-4.4592	-7.1025	2.8992	-0.6439	-9.1101	-3.2369	-12.5755	-9.1055	-3.1176	-2.42	-4.4372	0.7803	-10.6187	5.6774	-12.4612	0.3587	0.333	0.333	0.333	0.333	0.333	0.333	0.333	0.333	0.333	0.333	0.333	0.333	0.333	0.333	0.333	0.333	0.333	0.333	0.333	6.327	1.6531	3.4398	13	233	0.572108852182889	0	1
"234"	13	67	4	0	0	0	9	1	1	3.101	3.9085	-4.8942	1.0265	-0.9201	-3.272	-3.6322	-3.9717	7.7702	3.3541	-2.6304	-9.7994	-0.5922	8.8672	5.6057	-7.6998	1.0117	3.8354	2.8361	-4.5745	3.1527	0.3077	0.4248	0.3775	0.2694	0.4892	0.3129	0.2116	0.3812	0.4616	0.3405	0.513	0.2158	0.3541	0.2229	0.2779	0.2079	0.2864	0.4423	0.237	6.3336	1.4721	4.5856	13	234	1.13172464011831	1	0
"235"	13	62	4	2	2.4	1	10	1	1	3.001	2.8257	8.893	-7.8859	9.3099	6.0617	-8.1282	-0.6522	1.6881	1.4492	4.8008	6.8983	1.7376	5.369	3.1779	7.8291	8.296	-0.4683	-2.5923	-1.8546	0.5056	0.333	0.333	0.333	0.333	0.333	0.333	0.333	0.333	0.333	0.333	0.333	0.333	0.333	0.333	0.333	0.333	0.333	0.333	0.333	6.327	1.4324	4.435	13	235	1.09894556645823	1	0
"236"	13	59	4	-1	-1.2	1	14	-1	1	4.379	-0.2376	5.8576	8.9226	-1.129	-0.5841	-6.1803	-7.2303	-2.2397	-0.011	-6.1785	2.922	-1.2376	-6.9866	-7.6342	-2.1732	2.9501	-9.4156	4.5525	3.169	0.6221	0.333	0.333	0.333	0.333	0.333	0.333	0.333	0.333	0.333	0.333	0.333	0.333	0.333	0.333	0.333	0.333	0.333	0.333	0.333	6.327	1.5663	5.9468	13	236	1.47682038781926	0	1
"237"	13	50	4	-4	-4.8	0	11	-1	1	3.352	-9.0629	-0.2277	-10.2427	-1.3335	3.053	-2.3735	-0.1081	-2.9378	-5.1238	-2.5358	-9.5493	-0.6478	-0.1263	-7.2713	-2.6404	-13.8231	-13.9897	-3.0619	-3.7156	-11.2123	0.4893	0.275	0.2303	0.3423	0.391	0.263	0.3419	0.4591	0.2874	0.2297	0.2885	0.3755	0.2689	0.486	0.2174	0.3592	0.4372	0.2761	0.3162	6.334	1.6372	4.9857	13	237	1.20955718261984	0	1
"238"	13	2	4	-2	-2.4	1	13	1	0	4.206	0.7586	-1.9336	-6.5351	-9.4386	-1.4025	5.9364	-4.1373	-6.1349	3.5215	-3.3501	0.1169	2.8776	2.2427	-10.3183	-12.6981	0.4967	-5.1621	-0.5353	1.7826	-5.121	0.333	0.333	0.333	0.333	0.333	0.333	0.333	0.333	0.333	0.333	0.333	0.333	0.333	0.333	0.333	0.333	0.333	0.333	0.333	6.327	1.5989	5.8067	13	238	1.43651207728051	1	0
"239"	13	15	4	-4	-4.8	1	9	-1	1	2.942	-8.1223	-6.9425	1.0612	-8.5835	-8.2413	-0.8292	-2.7213	-8.4071	0.5371	-3.7366	-5.1307	8.5567	-8.6954	-9.3094	-5.1708	-0.9527	-7.7124	-4.916	-13.6689	-2.323	0.333	0.333	0.333	0.333	0.333	0.333	0.333	0.333	0.333	0.333	0.333	0.333	0.333	0.333	0.333	0.333	0.333	0.333	0.333	6.327	1.601	4.5599	13	239	1.07908962217925	0	1
"240"	13	34	4	2	2.4	1	11	1	1	3.371	1.8365	6.4102	-9.2565	0.1288	-3.5402	1.6896	5.8749	1.2752	0.339	11.0911	-0.9067	6.8253	-2.2312	6.167	1.295	-0.4374	9.9983	-1.4165	3.8044	9.6974	0.333	0.333	0.333	0.333	0.333	0.333	0.333	0.333	0.333	0.333	0.333	0.333	0.333	0.333	0.333	0.333	0.333	0.333	0.333	6.327	1.4867	4.8717	13	240	1.21520943625192	1	0
"241"	13	22	4	-4	-4.8	0	11	-1	1	3.199	-7.8057	-0.1586	-7.4594	-7.6368	-8.8593	-3.6198	-14.0457	4.0326	-6.0924	-6.9947	1.697	-4.8886	-6.102	-8.6006	-3.7776	0.7945	1.5227	2.6192	-11.8199	-7.4589	0.2475	0.2052	0.2361	0.4972	0.4528	0.2837	0.2587	0.412	0.3303	0.2272	0.3294	0.3803	0.291	0.4543	0.3177	0.3871	0.3423	0.3923	0.2727	6.3177	1.5775	4.7836	13	241	1.16283826096738	0	1
"242"	13	16	4	-2	-2.4	1	14	-1	1	4.512	1.2497	2.5538	0.0665	-3.9457	-5.1616	-1.6989	-12.2291	0.3974	2.342	-5.9919	-3.3227	-3.29	-2.6237	-6.647	1.4669	8.5803	-11.7883	-3.9509	-4.7744	2.4515	0.333	0.333	0.333	0.333	0.333	0.333	0.333	0.333	0.333	0.333	0.333	0.333	0.333	0.333	0.333	0.333	0.333	0.333	0.333	6.327	1.4523	5.979	13	242	1.50674051419576	0	1
"243"	13	66	4	-1	-1.2	0	14	-1	1	4.672	-2.5345	-3.5125	-5.3756	-6.4432	12.7353	-6.3398	1.4604	-1.1827	-0.5231	-2.7275	4.6209	-0.0343	4.1816	-0.8141	-9.417	1.3024	-6.4166	-3.4436	0.995	-1.3495	0.2546	0.3231	0.2788	0.3489	0.4513	0.4157	0.214	0.3005	0.2209	0.2984	0.5127	0.4039	0.2912	0.5078	0.3377	0.2541	0.2065	0.4936	0.2073	6.321	1.6528	6.3395	13	243	1.54158724552593	0	1
"244"	13	14	4	4	4.8	0	12	1	1	3.9	3.9004	12.2515	-2.2975	4.0531	4.1941	1.1494	0.7748	-3.4148	10.5037	14.9426	0.5503	2.8743	2.9937	9.4206	3.5843	2.7668	-0.2491	8.1623	6.5099	12.4963	0.3956	0.3017	0.2116	0.2449	0.3741	0.5294	0.259	0.3744	0.211	0.3592	0.2975	0.4222	0.2364	0.3239	0.4554	0.2828	0.4206	0.2132	0.421	6.3339	1.4806	5.3837	13	244	1.3609765531356	1	0
"245"	13	10	4	-1	-1.2	0	10	1	0	3.062	-4.9128	1.1804	0.5501	7.8045	2.5809	4.5511	-6.2922	-4.0633	-5.1711	5.2418	0.4118	-7.5995	1.6431	-8.6619	-2.2504	5.9953	-9.531	-1.8771	1.5935	-4.8214	0.4095	0.2173	0.4329	0.3655	0.3007	0.4999	0.2393	0.2075	0.2652	0.2007	0.3906	0.2919	0.2371	0.5126	0.2712	0.318	0.4914	0.2769	0.3964	6.3244	1.5147	4.5791	13	245	1.11906829723549	1	0
"246"	13	33	4	1	1.2	1	7	1	1	2.212	2.5384	4.2227	2.3839	-5.1886	2.2656	5.9936	-0.3099	12.044	3.116	3.1904	-8.1131	-4.5788	0.8027	3.2504	-0.5461	5.361	7.2895	-2.6433	-3.2893	-4.8751	0.333	0.333	0.333	0.333	0.333	0.333	0.333	0.333	0.333	0.333	0.333	0.333	0.333	0.333	0.333	0.333	0.333	0.333	0.333	6.327	1.6266	3.846	13	246	0.793897083660088	1	0
"247"	13	30	4	-2	-2.4	1	12	1	0	3.81	1.4378	1.6418	0.2814	7.3594	-9.5871	1.7854	-8.6678	-5.7036	-2.9957	6.2351	-0.079	0.3511	-6.6877	-6.7805	-3.3869	-3.7508	-6.0816	-3.7923	1.7015	-10.6484	0.333	0.333	0.333	0.333	0.333	0.333	0.333	0.333	0.333	0.333	0.333	0.333	0.333	0.333	0.333	0.333	0.333	0.333	0.333	6.327	1.6229	5.4272	13	247	1.33762918913861	1	0
"248"	13	17	4	-1	-1.2	1	19	1	0	6.09	-6.0908	1.8667	-4.7578	0.7177	-7.015	-1.5848	-8.5624	-0.7854	-1.3492	-0.8491	8.5838	-5.9822	-4.9194	7.4462	-9.1181	3.5837	3.4012	1.2203	3.1579	-1.9893	0.333	0.333	0.333	0.333	0.333	0.333	0.333	0.333	0.333	0.333	0.333	0.333	0.333	0.333	0.333	0.333	0.333	0.333	0.333	6.327	1.4917	7.5736	13	248	1.80664808172181	1	0
"249"	13	23	4	-2	-2.4	0	9	-1	1	3.269	-2.2007	-8.8061	-1.5193	-4.8072	-9.779	-4.869	0.7991	3.8087	2.4784	5.0592	-13.023	-2.9042	1.2885	1.2952	-1.2611	-1.6634	-3.1363	-10.6374	-0.6983	3.9392	0.3144	0.5062	0.343	0.5298	0.4207	0.3115	0.2756	0.4194	0.2149	0.2742	0.2024	0.2436	0.4022	0.2862	0.4335	0.2284	0.2757	0.3338	0.3068	6.3222	1.4786	4.77	13	249	1.18448412774207	0	1
"250"	13	31	4	-1	-1.2	1	11	-1	1	3.427	-5.5742	-7.6104	-4.297	6.8108	4.2462	-0.7772	4.405	-4.8678	2.7773	-3.008	6.6711	-10.3464	-1.6825	-4.9543	-1.5656	-3.411	-5.3512	-4.9996	3.8289	4.2536	0.333	0.333	0.333	0.333	0.333	0.333	0.333	0.333	0.333	0.333	0.333	0.333	0.333	0.333	0.333	0.333	0.333	0.333	0.333	6.327	1.6414	5.078	13	250	1.23168524289247	0	1
"251"	13	4	4	0	0	1	12	1	1	3.738	-1.2544	-4.1019	-6.0519	0.6378	7.9713	-0.9821	-12.0002	1.9828	2.9694	-3.7748	-0.4495	2.7071	7.7086	-4.5305	1.9428	-1.4408	8.4927	4.0447	1.2147	-3.6376	0.333	0.333	0.333	0.333	0.333	0.333	0.333	0.333	0.333	0.333	0.333	0.333	0.333	0.333	0.333	0.333	0.333	0.333	0.333	6.327	1.6657	5.4227	13	251	1.31855070903337	1	0
"252"	13	64	4	-4	-4.8	0	14	-1	1	4.333	-4.4983	-13.1036	-8.4242	-2.8366	4.7615	-11.7865	3.281	-3.5066	-2.1723	-2.1929	-0.9163	-4.773	-8.1535	-9.0809	-0.4832	-3.6324	-13.7232	-0.3059	-5.6859	-9.2975	0.3785	0.2272	0.3621	0.3249	0.1999	0.4288	0.2147	0.3466	0.4278	0.3585	0.3894	0.2386	0.2897	0.4527	0.2938	0.2409	0.4697	0.3787	0.3027	6.325	1.5698	5.9176	13	252	1.46626014275777	0	1
"253"	13	42	4	4	4.8	0	6	1	1	1.734	8.1749	9.5158	5.1778	10.1874	3.5794	-0.8133	6.4951	7.0606	0.7701	7.3978	-4.0351	1.9447	-1.5703	4.7505	6.1147	5.8852	7.5787	12.6687	-6.4591	11.2256	0.3307	0.4609	0.2278	0.482	0.2155	0.2527	0.3247	0.4541	0.2188	0.4655	0.5286	0.2619	0.5207	0.331	0.2606	0.2244	0.2554	0.2929	0.2108	6.3192	1.723	3.4684	13	253	0.55043087835835	1	0
"254"	13	61	4	1	1.2	1	10	1	1	3.207	5.829	-2.905	3.2307	-4.5841	5.8235	-6.6685	-0.7075	3.9104	8.446	10.2741	6.3379	-2.3292	7.4788	-0.3617	-0.1224	1.0903	-2.8034	0.8127	-3.6474	-4.4253	0.333	0.333	0.333	0.333	0.333	0.333	0.333	0.333	0.333	0.333	0.333	0.333	0.333	0.333	0.333	0.333	0.333	0.333	0.333	6.327	1.549	4.7579	13	254	1.16533592071102	1	0
"255"	13	63	4	4	4.8	1	5	1	1	1.514	0.3262	5.1487	4.1738	9.4832	5.5853	12.4857	8.666	0.708	1.4858	5.6793	4.7155	13.5087	0.1413	12.0787	-1.2472	6.7033	1.3271	-4.2389	-1.566	9.5841	0.333	0.333	0.333	0.333	0.333	0.333	0.333	0.333	0.333	0.333	0.333	0.333	0.333	0.333	0.333	0.333	0.333	0.333	0.333	6.327	1.5934	3.1147	13	255	0.414755155015257	1	0
"256"	13	24	4	-1	-1.2	0	9	-1	1	2.667	-2.7642	-6.6683	4.5929	1.3737	-1.911	-12.4097	-8.1395	-3.6431	-4.5265	-3.0662	2.5832	4.5076	7.5435	3.3296	5.4605	-3.1836	1.0436	-2.9577	0.4745	-5.8803	0.2882	0.4156	0.2149	0.4231	0.3301	0.2698	0.2214	0.315	0.2487	0.4236	0.2178	0.4162	0.4678	0.5284	0.3136	0.3921	0.2229	0.4081	0.2138	6.3309	1.4522	4.1172	13	256	0.980954245199877	0	1
"257"	13	70	4	4	4.8	0	6	1	1	2.267	2.9075	-3.2083	10.1035	3.5881	4.3095	14.9787	0.9567	1.9213	6.7868	6.0182	-5.3429	3.6125	3.8656	2.7068	8.1809	11.7431	2.7353	12.4946	0.2799	6.3677	0.4599	0.233	0.3975	0.31	0.3888	0.5218	0.4157	0.3743	0.2241	0.445	0.2186	0.3482	0.4028	0.3315	0.2381	0.2917	0.2622	0.2177	0.2462	6.3271	1.4813	3.7513	13	257	0.818457371525392	1	0
"258"	13	6	4	2	2.4	1	7	1	1	2.026	4.1802	3.3668	1.4393	9.677	2.5273	5.5649	0.9838	-1.3778	-7.0638	7.8409	-6.0798	3.0502	3.7844	-1.457	-6.8523	3.4997	10.2431	4.8232	7.858	3.6574	0.333	0.333	0.333	0.333	0.333	0.333	0.333	0.333	0.333	0.333	0.333	0.333	0.333	0.333	0.333	0.333	0.333	0.333	0.333	6.327	1.5999	3.6267	13	258	0.706063405826492	1	0
"259"	13	5	4	1	1.2	1	7	1	1	2.329	1.8503	3.8169	-0.1849	1.4266	2.6032	4.6579	-4.5299	3.8914	1.0895	3.6035	-5.8956	3.3969	6.7546	-3.0408	13.8091	-0.2723	-0.8292	-4.9309	-8.0974	4.4414	0.333	0.333	0.333	0.333	0.333	0.333	0.333	0.333	0.333	0.333	0.333	0.333	0.333	0.333	0.333	0.333	0.333	0.333	0.333	6.327	1.5966	3.9463	13	259	0.845438990902204	1	0
"260"	13	54	4	1	1.2	0	18	-1	0	5.861	1.5234	-0.2318	9.3642	2.3249	8.4802	-3.547	-3.387	-2.657	9.6995	-3.3018	2.4041	-2.1714	-3.2893	-6.648	7.1169	-3.2655	5.9229	6.0094	0.5748	0.4664	0.3107	0.346	0.2498	0.3784	0.2054	0.284	0.4327	0.468	0.3391	0.2516	0.3892	0.2108	0.4454	0.203	0.404	0.3498	0.5273	0.2108	0.3202	6.3262	1.6264	7.4951	13	260	1.76832023749429	0	1
"261"	13	35	4	4	4.8	1	11	1	1	3.493	6.953	3.3356	3.0929	3.9759	-1.5773	-2.262	3.0033	11.4053	10.0806	-3.0339	7.0271	-1.2361	1.346	10.762	8.6435	-0.1738	8.2867	7.8981	6.1191	13.6799	0.333	0.333	0.333	0.333	0.333	0.333	0.333	0.333	0.333	0.333	0.333	0.333	0.333	0.333	0.333	0.333	0.333	0.333	0.333	6.327	1.7322	5.2437	13	261	1.25076096582469	1	0
"262"	13	7	4	4	4.8	1	10	1	1	3.018	1.4951	0.5272	3.8724	11.0371	0.7965	2.95	-0.4171	3.2832	3.5632	7.144	7.8199	5.0467	3.9482	13.943	9.7317	13.0149	-6.0111	1.8841	1.8374	9.5594	0.333	0.333	0.333	0.333	0.333	0.333	0.333	0.333	0.333	0.333	0.333	0.333	0.333	0.333	0.333	0.333	0.333	0.333	0.333	6.327	1.4776	4.5023	13	262	1.10459436034566	1	0
"263"	13	51	4	-2	-2.4	0	10	-1	1	3.057	-6.6664	-5.3927	0.1268	-2.9514	-2.6119	2.7166	-9.2838	-3.0742	0.2744	-1.4234	-9.8066	-1.2872	-10.4829	1.4124	3.1687	9.6465	-0.3994	-0.1088	-0.9801	-9.468	0.5054	0.2982	0.223	0.3515	0.395	0.3126	0.2402	0.2909	0.2615	0.4435	0.3007	0.529	0.3036	0.2049	0.258	0.2958	0.4694	0.3946	0.2573	6.3352	1.6143	4.6747	13	263	1.1174340429087	0	1
"264"	13	32	4	0	0	1	8	-1	0	2.39	-3.697	-1.1416	-9.844	-7.4706	-1.7986	-1.8734	1.6186	-0.1076	7.0677	5.7701	8.3656	1.1184	-2.5845	4.3113	9.7279	-0.199	-1.5054	-5.8113	-1.7969	-0.9224	0.333	0.333	0.333	0.333	0.333	0.333	0.333	0.333	0.333	0.333	0.333	0.333	0.333	0.333	0.333	0.333	0.333	0.333	0.333	6.327	1.4643	3.8577	13	264	0.871293365943419	0	1
"265"	13	20	4	2	2.4	1	7	1	1	2.232	0.7385	-1.5222	-1.8881	-4.3459	4.6749	-0.788	-2.74	6.1315	-1.7969	-0.018	6.5593	4.5415	8.8195	-5.4611	8.241	4.4818	-3.3559	12.9586	5.7375	6.0484	0.333	0.333	0.333	0.333	0.333	0.333	0.333	0.333	0.333	0.333	0.333	0.333	0.333	0.333	0.333	0.333	0.333	0.333	0.333	6.327	1.5465	3.7826	13	265	0.802898044519065	1	0
"266"	13	52	4	-1	-1.2	0	7	1	0	2.461	-2.8809	-4.6203	-1.2282	6.6009	7.9516	8.8588	-7.4029	-6.8581	0.0319	-5.1744	-4.3107	-0.0266	5.8696	-8.4176	-2.8549	-0.8767	-3.6028	-2.9443	-2.9876	0.4474	0.3963	0.526	0.2728	0.3671	0.3313	0.4	0.2109	0.4417	0.2069	0.2343	0.2804	0.3358	0.2902	0.3847	0.4595	0.3059	0.2195	0.2789	0.3751	6.3173	1.5891	4.0616	13	266	0.900567771408919	1	0
"267"	13	40	4	1	1.2	0	12	1	1	4.045	4.1501	-0.6606	2.9441	3.5482	4.5014	-7.1501	-11.7818	4.2692	3.3671	3.0215	4.9824	-4.5962	1.4623	0.6303	2.3972	9.557	5.3724	-6.0877	0.6285	3.6564	0.2852	0.4185	0.267	0.3125	0.3387	0.4546	0.508	0.446	0.3135	0.3454	0.2917	0.2139	0.2896	0.4303	0.2085	0.3027	0.2205	0.4658	0.222	6.3345	1.5916	5.6457	13	267	1.39748155051045	1	0
"268"	13	41	4	2	2.4	0	12	1	1	4.089	6.2292	8.2155	3.5	0.8502	12.0362	3.5346	3.2573	5.8093	7.9768	4.3983	7.1727	2.1803	-3.0146	-9.3036	-1.0859	-2.0264	2.7271	-0.2314	-3.0155	0.0031	0.4778	0.2285	0.411	0.4509	0.2294	0.5199	0.3499	0.393	0.206	0.2918	0.2306	0.4222	0.2385	0.3129	0.249	0.3441	0.3176	0.3554	0.3019	6.3306	1.7306	5.8231	13	268	1.40830044138251	1	0
"269"	13	8	4	-4	-4.8	0	17	-1	1	5.592	-4.6368	3.7302	-11.0943	-4.3937	-11.5674	-15.3109	-5.8047	-0.8256	-2.8714	1.1969	1.8407	-8.3035	-1.2696	-11.2237	-4.8492	-6.4861	-5.7822	-5.8945	-0.1258	-1.5097	0.3505	0.3979	0.2379	0.4349	0.232	0.4506	0.2901	0.3542	0.2969	0.2132	0.4658	0.385	0.289	0.3476	0.4221	0.2436	0.2799	0.3858	0.2401	6.3172	1.6885	7.2929	13	269	1.72133700493151	0	1
"270"	13	65	4	-2	-2.4	0	10	1	0	3.421	-4.8788	5.3436	-5.209	-13.2942	-2.7795	-6.6768	0.2948	2.7832	-2.5713	2.1293	-11.4229	-0.3765	0.7167	1.959	-5.961	2.0157	-5.787	-4.7261	3.2862	-1.4499	0.4672	0.2604	0.5269	0.344	0.2296	0.3114	0.4277	0.3266	0.2463	0.3069	0.4207	0.3126	0.2419	0.3506	0.2837	0.256	0.4903	0.2031	0.3305	6.3365	1.4	4.8386	13	270	1.22993290599547	1	0
"271"	13	11	4	0	0	0	11	1	1	3.6	-2.459	0.2242	-4.6704	9.4743	-0.1794	-6.6177	1.9708	5.6454	-2.1208	8.4166	-5.2817	-4.6645	-0.4346	-7.9254	-0.0712	4.8529	-0.4886	-2.2826	7.7805	-1.2868	0.2169	0.3166	0.2171	0.394	0.52	0.4846	0.2286	0.4726	0.2554	0.3587	0.2879	0.3342	0.4259	0.3292	0.2132	0.245	0.2196	0.4514	0.3627	6.3338	1.7114	5.3178	13	271	1.28093384546206	1	0
"272"	13	3	4	-1	-1.2	1	13	1	0	4.206	2.9777	-4.8627	-0.4136	-11.561	-1.5231	1.254	-3.0353	-1.1562	4.2057	2.758	-1.2687	0.7596	1.5328	-1.1049	-9.1112	-5.3238	2.9124	-11.2198	7.4482	1.124	0.333	0.333	0.333	0.333	0.333	0.333	0.333	0.333	0.333	0.333	0.333	0.333	0.333	0.333	0.333	0.333	0.333	0.333	0.333	6.327	1.6991	5.923	13	272	1.43651207728051	1	0
"273"	13	49	4	4	4.8	1	4	1	1	1.162	8.1751	4.8395	9.5296	0.6121	1.2562	-1.2946	11.5218	2.7502	6.1769	3.5087	4.6887	17.8685	7.8264	3.5578	6.8197	1.3064	-2.5752	0.468	7.7497	-0.0696	0.333	0.333	0.333	0.333	0.333	0.333	0.333	0.333	0.333	0.333	0.333	0.333	0.333	0.333	0.333	0.333	0.333	0.333	0.333	6.327	1.7115	2.8798	13	273	0.150142658429719	1	0
"274"	13	36	4	-4	-4.8	0	12	-1	1	3.675	-2.6811	-4.3661	-4.962	-3.3908	6.0013	-6.0729	-2.7226	-9.2597	-4.3116	-7.1065	4.3809	-11.0159	-6.5276	-8.9815	-11.3104	-10.9008	-3.8573	-10.3495	0.1609	0.6299	0.2935	0.2364	0.3271	0.231	0.4366	0.2432	0.503	0.3708	0.2042	0.3223	0.2511	0.4543	0.3641	0.4044	0.2746	0.3187	0.51	0.3602	0.214	6.3194	1.603	5.2928	13	274	1.3015531326648	0	1
"275"	13	28	4	4	4.8	0	7	1	1	2.157	0.7096	9.8425	9.2146	10.4911	-0.5454	9.6748	2.0885	12.9831	4.0391	5.5887	8.9727	2.1371	8.6319	6.7127	-5.3306	-1.9395	-3.0094	8.4736	3.8844	4.079	0.4086	0.4576	0.2033	0.3147	0.2541	0.3866	0.4803	0.2286	0.3009	0.3504	0.4655	0.3242	0.212	0.3272	0.3571	0.314	0.2317	0.447	0.2613	6.3249	1.4984	3.6575	13	275	0.768718367407019	1	0
"276"	13	55	4	2	2.4	0	13	1	1	4.271	5.0808	0.0022	4.1083	1.3654	-1.3488	-0.6898	-0.2136	13.1521	-0.4529	4.6218	-3.0838	5.7487	4.4882	7.1721	-7.9742	1.9489	-4.4149	9.6273	8.0965	-0.023	0.2626	0.2041	0.3698	0.2326	0.3906	0.365	0.2444	0.4584	0.3344	0.4505	0.3478	0.2715	0.518	0.4531	0.4166	0.2517	0.3119	0.2117	0.238	6.3328	1.6732	5.9556	13	276	1.45184799185933	1	0
"278"	13	46	4	0	0	1	14	1	1	4.475	-3.2034	-1.7048	-6.0567	-2.6615	2.1683	2.8099	-5.863	5.0118	3.4028	-0.3715	-2.1957	11.1284	-2.193	10.4626	0.9389	-4.8506	0.0871	-4.9346	3.2279	-3.9048	0.333	0.333	0.333	0.333	0.333	0.333	0.333	0.333	0.333	0.333	0.333	0.333	0.333	0.333	0.333	0.333	0.333	0.333	0.333	6.327	1.5295	6.026	13	278	1.49850635172682	1	0
"279"	13	56	4	4	4.8	0	5	1	1	1.229	3.9921	3.444	2.5913	3.7989	1.9916	-4.3828	5.0584	10.3357	-0.8687	4.0303	8.2866	2.2734	2.9682	13.5619	14.2212	13.1191	-1.7292	1.5848	3.7178	6.4162	0.2817	0.2518	0.2176	0.4714	0.2563	0.2199	0.3245	0.3511	0.2777	0.3445	0.4589	0.4966	0.2824	0.4414	0.2666	0.3372	0.4533	0.2801	0.3106	6.3236	1.43	2.6792	13	279	0.206200830583898	1	0
"280"	13	27	4	2	2.4	0	5	1	1	1.582	0.2751	6.7925	7.1586	9.0017	-2.8618	-8.5064	-2.4963	3.9616	10.752	7.1155	-1.4806	-0.6853	-4.2787	3.8757	1.6352	6.328	7.5129	3.4613	0.6058	-1.3542	0.3354	0.2197	0.4008	0.4984	0.2637	0.414	0.5076	0.2457	0.2942	0.2211	0.3053	0.3965	0.282	0.2497	0.3796	0.2774	0.2341	0.2796	0.5272	6.332	1.5888	3.1831	13	280	0.458689869345462	1	0
"281"	13	49	5	4	4.8	1	4	1	1	1.163	4.9887	13.4123	10.4287	2.1243	3.9691	2.9597	3.2721	-3.593	2.5482	-5.1256	2.6347	11.9898	6.233	10.1875	0.1435	6.2009	2.4712	1.9274	13.3526	5.3026	0.333	0.333	0.333	0.333	0.333	0.333	0.333	0.333	0.333	0.333	0.333	0.333	0.333	0.333	0.333	0.333	0.333	0.333	0.333	6.327	1.482	2.6642	13	281	0.151002873536527	1	0
