"subNo"	"index"	"block"	"level"	"mean"	"periodicity"	"nEvents"	"answer"	"isCorrect"	"rt"	"s1"	"s2"	"s3"	"s4"	"s5"	"s6"	"s7"	"s8"	"s9"	"s10"	"s11"	"s12"	"s13"	"s14"	"s15"	"s16"	"s17"	"s18"	"s19"	"s20"	"t1"	"t2"	"t3"	"t4"	"t5"	"t6"	"t7"	"t8"	"t9"	"t10"	"t11"	"t12"	"t13"	"t14"	"t15"	"t16"	"t17"	"t18"	"t19"	"seqDuration"	"startInterval"	"trialDuration"	"pID"	"Trial"	"rtLog"	"right"	"left"
"1"	14	62	1	2	2.98	1	5	1	1	1.453	5.4377	2.6167	10.1769	-1.0021	0.1983	-2.1564	7.3501	4.1999	-6.3753	-3.6414	-0.9776	12.7767	9.4023	-1.2809	1.5465	5.3528	8.0409	2.4381	0.4858	5.434	0.333	0.333	0.333	0.333	0.333	0.333	0.333	0.333	0.333	0.333	0.333	0.333	0.333	0.333	0.333	0.333	0.333	0.333	0.333	6.327	1.6835	3.154	14	1	0.373630384588146	1	0
"2"	14	64	1	-4	-5.96	0	4	-1	1	1.256	-1.1886	-3.5772	-10.655	-6.9594	-9.0224	-5.3674	0.275	-11.8121	-12.9408	-0.9526	-8.1736	-12.4603	-9.9747	0.5595	-2.3882	-2.1779	2.4844	-10.775	-4.1953	-10.3882	0.3171	0.224	0.3177	0.4391	0.4839	0.3299	0.303	0.3359	0.4358	0.32	0.2632	0.3791	0.3343	0.3797	0.2902	0.4101	0.2543	0.3056	0.2046	6.3273	1.5447	2.8069	14	2	0.227932068046007	0	1
"3"	14	60	1	0	0	1	7	1	1	2.19	4.2216	-1.0673	-6.5705	-0.2921	5.1838	-5.1638	1.0451	0.3953	9.4681	0.3023	-9.2601	-2.6563	1.835	1.1154	-1.3214	-3.2555	4.2436	9.3973	-6.3842	-0.5041	0.333	0.333	0.333	0.333	0.333	0.333	0.333	0.333	0.333	0.333	0.333	0.333	0.333	0.333	0.333	0.333	0.333	0.333	0.333	6.327	1.5882	3.7906	14	3	0.783901543828409	1	0
"4"	14	33	1	1	1.49	1	6	1	1	1.898	-1.9377	2.3808	1.9906	2.9186	-1.8134	7.9711	1.5058	9.667	-1.8425	5.7291	-5.9212	6.5758	-1.6191	8.6435	7.0592	-5.5614	-2.066	-6.495	4.3541	0.0688	0.333	0.333	0.333	0.333	0.333	0.333	0.333	0.333	0.333	0.333	0.333	0.333	0.333	0.333	0.333	0.333	0.333	0.333	0.333	6.327	1.4292	3.3316	14	4	0.640800700187736	1	0
"5"	14	37	1	-2	-2.98	0	5	-1	1	1.758	-7.8153	-11.3419	7.7405	0.3626	-7.2861	-2.429	-10.1466	-1.2404	-6.9128	-1.4626	-8.9831	-0.8099	-10.045	0.412	-1.3203	-2.9701	1.3975	-0.8979	1.1989	1.2249	0.2569	0.4162	0.29	0.447	0.3625	0.3321	0.2612	0.3437	0.2133	0.2452	0.4638	0.2557	0.379	0.415	0.2584	0.431	0.2286	0.4732	0.2628	6.3358	1.6613	3.4254	14	5	0.564176799262985	0	1
"6"	14	44	1	-2	-2.98	1	6	1	0	1.721	-6.7579	-0.5354	-3.3861	2.7336	-4.4223	1.322	-1.1163	3.5791	7.1425	-4.089	-7.654	-6.1119	-2.6169	-4.2497	-4.5107	-0.0781	-16.4167	-6.4074	-6.6796	1.4606	0.333	0.333	0.333	0.333	0.333	0.333	0.333	0.333	0.333	0.333	0.333	0.333	0.333	0.333	0.333	0.333	0.333	0.333	0.333	6.327	1.6702	3.4056	14	6	0.542905517229402	1	0
"7"	14	9	1	-2	-2.98	0	7	1	0	2.197	-3.8932	-8.2528	-6.0495	-0.0026	-4.2322	0.4573	-7.5955	-3.3524	-1.039	-0.0044	-5.3219	7.9005	8.2369	0.3719	-3.5309	-4.4703	-3.0926	-12.3053	-9.3898	-4.0271	0.4924	0.3084	0.4035	0.277	0.4085	0.2278	0.3278	0.2231	0.4283	0.4812	0.2028	0.3926	0.3652	0.2022	0.3192	0.2822	0.368	0.2514	0.3755	6.3369	1.6101	3.8142	14	7	0.787092793402473	1	0
"8"	14	8	1	-4	-5.96	0	5	-1	1	1.299	-4.5517	-4.7294	-3.9526	-7.7017	-9.6952	-2.8344	-3.1322	4.7143	-11.6888	-2.4648	-5.0031	-12.938	-0.5902	-8.825	-9.7958	-10.1178	-7.1704	4.1289	-13.9452	-7.4174	0.3335	0.26	0.2852	0.2177	0.3746	0.2921	0.3754	0.2882	0.3326	0.3879	0.4577	0.3907	0.3025	0.2741	0.3122	0.2835	0.2209	0.4948	0.4399	6.3238	1.4919	2.7996	14	8	0.261594737688462	0	1
"9"	14	18	1	0	0	1	7	1	1	2.222	-4.9823	-5.1397	1.8756	-2.5097	-1.0842	6.464	-3.7078	7.0251	-4.5931	2.3443	-1.3644	-6.1621	5.4415	-4.0911	0.5226	0.1073	4.8876	12.303	-5.2062	-0.9002	0.333	0.333	0.333	0.333	0.333	0.333	0.333	0.333	0.333	0.333	0.333	0.333	0.333	0.333	0.333	0.333	0.333	0.333	0.333	6.327	1.6646	3.8897	14	9	0.798407691217438	1	0
"10"	14	43	1	-4	-5.96	1	6	-1	1	1.718	-10.0755	-6.5876	-8.5553	-2.819	-4.2954	2.537	-2.7611	-14.4212	1.7916	-9.0081	-4.6532	0.6852	-11.4852	-6.332	-14.2372	-3.2088	-5.8447	-6.533	-0.5014	-11.0725	0.333	0.333	0.333	0.333	0.333	0.333	0.333	0.333	0.333	0.333	0.333	0.333	0.333	0.333	0.333	0.333	0.333	0.333	0.333	6.327	1.4574	3.1857	14	10	0.541160823562064	0	1
"11"	14	53	1	0	0	0	6	1	0	1.849	-0.9215	-3.4971	-0.7636	2.7651	1.7629	11.0981	-10.9126	-3.4972	2.8442	-11.3218	-0.4649	3.7982	-0.5378	1.3927	5.6613	2.9079	1.9953	-2.339	0.0405	1.6602	0.2957	0.2015	0.2886	0.2014	0.4712	0.4065	0.2941	0.3323	0.2803	0.3579	0.2588	0.5324	0.3647	0.2084	0.3723	0.335	0.5282	0.3317	0.2698	6.3307	1.6826	3.5331	14	11	0.614644952404988	1	0
"12"	14	49	1	4	5.96	1	6	1	1	1.9	9.0612	-1.2303	6.102	5.2271	11.8599	16.9473	3.3697	9.4546	2.926	7.7662	10.1289	0.6044	14.2704	1.2461	2.8306	2.6861	3.7354	-0.9574	9.9735	3.4864	0.333	0.333	0.333	0.333	0.333	0.333	0.333	0.333	0.333	0.333	0.333	0.333	0.333	0.333	0.333	0.333	0.333	0.333	0.333	6.327	1.5687	3.4836	14	12	0.641853886172395	1	0
"13"	14	7	1	4	5.96	1	4	1	1	1.197	1.1836	4.0303	9.8295	3.8364	2.5001	6.4132	5.6611	13.6553	10.2714	0.486	4.0331	-6.223	13.4002	6.5133	10.9557	8.1928	8.838	10.6399	4.4929	-0.6281	0.333	0.333	0.333	0.333	0.333	0.333	0.333	0.333	0.333	0.333	0.333	0.333	0.333	0.333	0.333	0.333	0.333	0.333	0.333	6.327	1.6987	2.914	14	13	0.179818426575836	1	0
"14"	14	51	1	-2	-2.98	0	7	-1	1	1.896	-3.2148	-4.078	-6.7575	-5.0308	-4.1248	-5.6471	-5.3513	-4.6807	-3.8547	-3.2565	-9.0579	-5.5251	6.8489	1.4653	-6.5431	2.0323	-6.1571	2.8335	-10.4842	9.1895	0.2608	0.2087	0.4902	0.28	0.252	0.3349	0.2752	0.4472	0.3822	0.3076	0.2435	0.3422	0.4231	0.3814	0.296	0.3815	0.2409	0.3593	0.4169	6.3235	1.4505	3.3629	14	14	0.63974640383283	0	1
"15"	14	22	1	-4	-5.96	0	4	-1	1	1.131	-6.7072	-6.3833	-11.3725	3.184	-9.8611	-9.2951	-6.3931	-1.599	0.0079	-10.1123	-6.4672	-4.057	-4.4836	-3.6739	-17.2586	-9.1747	-5.3197	4.7072	-6.9143	-9.8006	0.3684	0.2051	0.3756	0.4576	0.2976	0.2559	0.2174	0.2438	0.4089	0.2451	0.3432	0.5073	0.282	0.206	0.2855	0.5262	0.3258	0.2753	0.505	6.3318	1.5059	2.6481	14	15	0.123102197133983	0	1
"16"	14	39	1	0	0	0	4	1	1	1.175	3.2481	1.8317	2.977	-4.4234	-0.1257	8.8106	0.9484	-5.5997	1.3538	-3.7658	-3.1252	7.2651	4.7587	-9.5553	-2.695	-1.5746	1.3079	3.9298	4.0706	-9.9085	0.3373	0.2441	0.4532	0.3013	0.4213	0.3335	0.482	0.2778	0.3867	0.3493	0.322	0.2391	0.2055	0.4843	0.3275	0.2646	0.2157	0.2419	0.4357	6.323	1.5722	2.7587	14	16	0.161268147596122	1	0
"17"	14	47	1	1	1.49	1	7	1	1	2.208	1.2969	-4.3139	-4.7654	-3.5034	12.5024	5.5277	-0.5097	4.3709	8.8484	3.7436	-1.6733	0.8073	-0.6573	3.1232	-1.9019	5.4959	7.3969	0.9895	-7.2936	-1.5732	0.333	0.333	0.333	0.333	0.333	0.333	0.333	0.333	0.333	0.333	0.333	0.333	0.333	0.333	0.333	0.333	0.333	0.333	0.333	6.327	1.5195	3.7418	14	17	0.792087128414849	1	0
"18"	14	36	1	-4	-5.96	0	5	-1	1	1.451	-3.863	-4.8342	-4.7582	0.0437	-2.3069	-12.0906	-6.1833	-6.8127	-17.0222	-1.641	-10.3188	-0.7495	6.942	-6.0941	-7.4041	-9.8059	-9.3505	-7.5673	-8.1417	-6.7785	0.2528	0.4748	0.286	0.4036	0.3368	0.3633	0.2218	0.3432	0.2038	0.4673	0.2081	0.415	0.2957	0.2386	0.4849	0.397	0.2815	0.423	0.2338	6.3312	1.6315	3.085	14	18	0.372252973902051	0	1
"19"	14	19	1	1	1.49	1	5	1	1	1.571	-2.8033	2.4041	1.4671	6.2213	-3.5381	-3.1692	-0.8213	-1.1042	1.7195	2.0645	-1.986	14.2588	0.344	-1.1197	-3.0044	-0.6531	1.5215	2.1638	14.031	1.4179	0.333	0.333	0.333	0.333	0.333	0.333	0.333	0.333	0.333	0.333	0.333	0.333	0.333	0.333	0.333	0.333	0.333	0.333	0.333	6.327	1.5999	3.1718	14	19	0.451712359273484	1	0
"20"	14	17	1	-1	-1.49	1	6	-1	1	1.699	-3.4591	6.561	-3.2412	-12.247	-2.1751	8.2251	0.9246	-4.771	-8.3939	-0.2306	-2.6763	6.183	2.2407	1.5523	-5.4226	-3.5107	-5.8664	-5.3896	0.2732	0.2063	0.333	0.333	0.333	0.333	0.333	0.333	0.333	0.333	0.333	0.333	0.333	0.333	0.333	0.333	0.333	0.333	0.333	0.333	0.333	6.327	1.7177	3.417	14	20	0.530039842689795	0	1
"21"	14	11	1	0	0	0	5	1	1	1.578	3.862	1.568	-1.0336	-6.2756	-0.0777	-0.356	7.6687	7.4002	-10.1914	-0.2726	-7.6933	1.4552	0.9308	-0.9555	0.1203	2.2354	-0.8939	6.8232	-7.5693	3.3549	0.3767	0.2986	0.3236	0.2114	0.5041	0.2926	0.2163	0.5322	0.3197	0.2153	0.4186	0.3438	0.2958	0.384	0.4843	0.3024	0.253	0.3161	0.238	6.3263	1.6992	3.2789	14	21	0.456158222423683	1	0
"22"	14	59	1	-1	-1.49	1	7	1	0	2.094	-4.8754	5.7566	1.7986	4.5706	-4.4903	-0.6158	-8.4485	-11.5299	-3.7935	7.1222	-0.6934	-2.6043	0.5015	-3.4152	-2.9581	-7.2992	3.3727	4.6177	-4.9912	-2.1142	0.333	0.333	0.333	0.333	0.333	0.333	0.333	0.333	0.333	0.333	0.333	0.333	0.333	0.333	0.333	0.333	0.333	0.333	0.333	6.327	1.4431	3.5446	14	22	0.739076112448345	1	0
"23"	14	69	1	2	2.98	0	4	1	1	1.445	4.6453	1.1408	5.9287	9.339	-0.6266	1.947	-3.682	3.0872	4.5186	14.8498	6.2255	10.0913	4.6642	6.1794	-3.2422	-1.3294	-4.0936	0.4599	1.3039	-0.8569	0.5063	0.3859	0.2994	0.458	0.4215	0.3284	0.2342	0.3849	0.2846	0.2139	0.2548	0.4413	0.224	0.3516	0.2557	0.3657	0.2537	0.4448	0.215	6.3237	1.6475	3.0961	14	23	0.368109321564396	1	0
"24"	14	6	1	2	2.98	1	6	1	1	1.958	4.7854	6.3098	7.0034	1.3331	-8.5407	2.6941	-3.4009	2.4204	3.2076	3.3295	6.8537	-2.6112	2.2738	-6.8762	7.1167	5.6102	8.3591	6.6424	3.3639	10.6208	0.333	0.333	0.333	0.333	0.333	0.333	0.333	0.333	0.333	0.333	0.333	0.333	0.333	0.333	0.333	0.333	0.333	0.333	0.333	6.327	1.4837	3.4418	14	24	0.671923544108319	1	0
"25"	14	35	1	4	5.96	1	4	1	1	1.059	6.7172	6.0208	18.8213	-0.7258	1.9729	6.6913	4.9493	2.7336	8.0592	-1.5481	8.4583	0.7193	10.7873	3.0311	1.3531	12.7659	4.8096	6.9597	11.2164	5.0394	0.333	0.333	0.333	0.333	0.333	0.333	0.333	0.333	0.333	0.333	0.333	0.333	0.333	0.333	0.333	0.333	0.333	0.333	0.333	6.327	1.6192	2.6767	14	25	0.0573250666192694	1	0
"26"	14	4	1	0	0	1	5	1	0	1.501	-4.095	3.773	4.8968	1.2288	-6.0874	2.3139	11.7216	-5.7999	-2.2338	4.9789	-6.3669	2.0082	-2.9436	-2.9059	-3.5375	8.5365	0.2943	-3.4206	-0.5449	-3.2609	0.333	0.333	0.333	0.333	0.333	0.333	0.333	0.333	0.333	0.333	0.333	0.333	0.333	0.333	0.333	0.333	0.333	0.333	0.333	6.327	1.4	2.9015	14	26	0.406131552651325	1	0
"27"	14	40	1	1	1.49	0	8	1	1	2.583	-0.0173	-5.7091	4.5309	1.6023	-1.6574	-3.44	7.0055	2.7302	-5.0191	-2.5191	5.4313	5.3912	-7.8797	8.2216	8.6757	1.5677	4.8734	6.6816	-3.8049	2.0706	0.2731	0.3599	0.4685	0.4424	0.3552	0.2333	0.3994	0.354	0.2954	0.2322	0.419	0.2169	0.5112	0.3744	0.2143	0.3436	0.2217	0.3673	0.2355	6.3173	1.7316	4.3336	14	27	0.948951514113703	1	0
"28"	14	21	1	4	5.96	1	7	1	1	2.203	9.0916	-2.5222	4.0478	6.8929	12.9421	1.5369	4.9515	1.7281	0.1673	1.9254	13.2797	13.6134	5.9634	2.9088	8.7932	4.7825	6.4322	13.0885	-0.3271	10.6359	0.333	0.333	0.333	0.333	0.333	0.333	0.333	0.333	0.333	0.333	0.333	0.333	0.333	0.333	0.333	0.333	0.333	0.333	0.333	6.327	1.7062	3.9209	14	28	0.789820067820206	1	0
"29"	14	41	1	2	2.98	0	9	-1	0	2.948	2.4526	-0.2926	-4.6068	5.9696	0.6789	-4.6225	1.6847	5.1113	8.6244	7.1357	5.1354	-4.9619	10.9458	-2.8907	11.3972	-0.239	5.2615	1.8834	1.8506	8.8694	0.2132	0.5131	0.3097	0.5004	0.4118	0.3288	0.2026	0.4376	0.2722	0.2989	0.27	0.3548	0.2223	0.2836	0.3102	0.4106	0.3447	0.4403	0.2021	6.3269	1.6023	4.5656	14	29	1.08112697432709	0	1
"30"	14	55	1	2	2.98	0	6	-1	0	2.076	-1.9071	0.2371	-4.0507	-5.7049	-1.8568	5.1684	3.6442	13.4053	3.802	-0.7487	2.0472	4.7004	10.6379	-1.8006	4.0858	5.4728	11.3396	3.8446	3.0283	4.2448	0.4338	0.3966	0.2364	0.297	0.3449	0.4677	0.4359	0.2128	0.4204	0.3016	0.2463	0.2723	0.3794	0.227	0.4357	0.2137	0.4251	0.2283	0.3518	6.3267	1.5506	3.6431	14	30	0.730442965303642	0	1
"31"	14	48	1	2	2.98	1	7	1	1	2.199	1.6644	-4.9818	2.9204	0.6075	2.982	15.6962	9.7661	3.2648	1.8201	-1.8254	11.0203	3.8084	-0.4728	-1.1794	-0.3722	7.7392	-3.354	2.0932	3.4321	4.7963	0.333	0.333	0.333	0.333	0.333	0.333	0.333	0.333	0.333	0.333	0.333	0.333	0.333	0.333	0.333	0.333	0.333	0.333	0.333	6.327	1.6829	3.9001	14	31	0.788002711572624	1	0
"32"	14	20	1	2	2.98	1	7	1	1	2.034	7.4885	-4.2235	1.6883	-2.7948	8.5635	7.2533	5.6996	7.6497	6.5923	3.718	10.631	3.0044	6.8794	-8.0201	3.3373	4.8077	4.1637	-3.3757	0.0273	-2.1475	0.333	0.333	0.333	0.333	0.333	0.333	0.333	0.333	0.333	0.333	0.333	0.333	0.333	0.333	0.333	0.333	0.333	0.333	0.333	6.327	1.581	3.6186	14	32	0.710004297626368	1	0
"33"	14	30	1	-2	-2.98	1	7	-1	1	2.018	1.1233	-2.4201	-1.0742	-0.2375	-1.9392	-4.6163	-9.0903	4.9274	-3.944	-6.3826	-11.0696	-7.4825	2.4695	-8.4228	-4.8573	-0.4417	-10.6901	4.5985	-5.7421	4.1473	0.333	0.333	0.333	0.333	0.333	0.333	0.333	0.333	0.333	0.333	0.333	0.333	0.333	0.333	0.333	0.333	0.333	0.333	0.333	6.327	1.4092	3.435	14	33	0.702106921931417	0	1
"34"	14	2	1	-2	-2.98	1	8	1	0	2.454	-0.8424	3.3349	7.9645	-2.0469	-11.0699	2.3439	-7.2476	-7.459	-1.5127	-10.1113	-3.4077	-6.1952	-11.003	-2.519	-1.6385	-0.4407	-1.8168	-7.3544	1.9922	-2.2445	0.333	0.333	0.333	0.333	0.333	0.333	0.333	0.333	0.333	0.333	0.333	0.333	0.333	0.333	0.333	0.333	0.333	0.333	0.333	6.327	1.6038	4.071	14	34	0.89771934628872	1	0
"35"	14	25	1	0	0	0	8	1	0	2.312	3.3727	0.2211	-5.7094	-2.0119	1.3423	5.8583	-1.4162	0.6351	2.8243	-12.6628	-8.8728	-6.1257	4.368	4.3086	-1.4697	1.5164	-0.5931	5.1699	6.8739	2.0421	0.2138	0.41	0.3285	0.2084	0.486	0.3439	0.2329	0.3254	0.2336	0.3123	0.2041	0.2529	0.449	0.4982	0.3364	0.2474	0.2972	0.5065	0.4459	6.3325	1.6183	3.929	14	35	0.838112950810131	1	0
"36"	14	68	1	1	1.49	0	5	1	1	1.482	-0.8945	2.3047	6.7026	10.888	3.4951	7.6231	-3.3851	-2.0635	5.2045	-10.6108	-0.4797	-0.8106	3.745	-5.6402	0.8373	7.886	1.0949	2.5588	-0.0757	3.4136	0.3637	0.497	0.214	0.3875	0.2655	0.2204	0.2828	0.4122	0.3192	0.2473	0.3065	0.3404	0.212	0.3055	0.4423	0.3139	0.4898	0.3657	0.3377	6.3235	1.5111	2.9994	14	36	0.393392526873895	1	0
"37"	14	70	1	4	5.96	0	7	1	1	2.223	10.0932	-0.008	12.1825	-0.4088	3.4237	14.634	0.234	0.2957	7.3504	9.9709	15.282	3.6409	1.9794	4.8487	3.5331	9.016	0.9734	3.8225	8.5648	8.1133	0.5248	0.2725	0.4766	0.2384	0.2788	0.3093	0.2296	0.4968	0.2304	0.3001	0.2357	0.3964	0.4669	0.293	0.3943	0.2711	0.4072	0.2134	0.3003	6.3354	1.6198	3.8409	14	37	0.798857634982059	1	0
"38"	14	45	1	-1	-1.49	1	7	-1	1	2.085	-0.9141	-1.8305	-9.522	5.0556	-7.9991	-3.9525	-6.7404	1.4371	-4.7173	-3.1222	-2.2378	2.3216	-2.8989	0.5459	-7.2008	-8.2531	5.8253	1.7837	7.2518	5.341	0.333	0.333	0.333	0.333	0.333	0.333	0.333	0.333	0.333	0.333	0.333	0.333	0.333	0.333	0.333	0.333	0.333	0.333	0.333	6.327	1.5344	3.6192	14	38	0.734768855250765	0	1
"39"	14	42	1	4	5.96	0	5	1	1	1.75	5.191	13.2031	0.5678	5.062	10.6649	3.101	6.0464	7.2885	8.7414	1.9348	11.7349	-2.0805	-3.9487	15.4645	5.8478	0.44	9.0191	9.8802	6.1517	3.115	0.4621	0.3938	0.4799	0.2276	0.3882	0.3485	0.252	0.2922	0.2589	0.2949	0.2648	0.2343	0.3844	0.3029	0.4418	0.285	0.2288	0.3827	0.4113	6.334	1.4057	3.1675	14	39	0.559615787935423	1	0
"40"	14	10	1	-1	-1.49	0	8	1	0	2.343	0.2027	-9.5625	-1.0979	-5.4907	-0.3416	1.3145	-8.1591	1.1425	-12.6472	2.4866	-3.1386	-6.2099	8.1311	3.4832	1.7838	-2.9753	2.8064	-1.3792	3.9221	-2.2108	0.4268	0.261	0.349	0.2083	0.3654	0.4444	0.2486	0.5036	0.4057	0.337	0.506	0.2263	0.2917	0.3973	0.2177	0.3212	0.3783	0.2418	0.2036	6.3338	1.4257	3.7772	14	40	0.851432159525659	1	0
"41"	14	50	1	-4	-5.96	0	4	-1	1	1.277	-8.9049	-9.4259	-8.4662	4.2313	-4.4974	-2.8395	0.1494	0.5975	-4.2831	-12.2617	-6.3709	-5.1612	-4.2532	-6.2083	-14.7945	-8.2231	-11.6404	-4.0713	0.0628	-14.2474	0.326	0.3763	0.4424	0.3538	0.2237	0.4081	0.3111	0.2809	0.2346	0.3874	0.2275	0.5051	0.2335	0.3091	0.4359	0.3126	0.4134	0.2261	0.3133	6.321	1.4212	2.7108	14	41	0.244513577050402	0	1
"42"	14	13	1	2	2.98	0	5	1	1	1.828	0.9109	14.5921	-1.3901	8.5004	0.6025	0.5063	-3.0441	11.123	4.7008	0.4482	0.7465	-0.655	-1.672	5.4561	-5.2106	5.5691	4.074	-0.5365	9.6621	4.2736	0.2723	0.4161	0.5273	0.261	0.4741	0.2029	0.3591	0.2158	0.3177	0.5105	0.2584	0.4196	0.2068	0.2338	0.4278	0.3196	0.2776	0.3736	0.2432	6.3171	1.6832	3.5288	14	42	0.603222473031958	1	0
"43"	14	24	1	-1	-1.49	0	9	1	0	2.596	3.1745	-5.3482	5.1278	0.155	2.7674	-8.5977	-3.0955	-3.0095	9.2733	-5.2269	1.9642	-9.8059	-8.6374	-0.2805	-4.0923	-6.7436	0.0261	1.2414	0.2098	-0.7623	0.3202	0.2728	0.3303	0.3852	0.2007	0.4559	0.2355	0.3427	0.2411	0.4192	0.2491	0.4233	0.2245	0.4188	0.3833	0.4733	0.3734	0.3365	0.2429	6.3287	1.5692	4.1804	14	43	0.953971798841844	1	0
"44"	14	66	1	-1	-1.49	0	6	-1	1	1.604	-2.8226	3.5412	-1.8127	-15.0838	0.5599	-0.7385	-5.2726	-2.4125	-3.843	-7.352	2.3189	0.2257	-3.7108	0.0601	4.2264	2.7152	-0.5117	7.1426	-8.2343	-0.2748	0.4881	0.2633	0.2978	0.2522	0.2011	0.2916	0.2151	0.4889	0.45	0.3594	0.5283	0.2462	0.2121	0.5133	0.3804	0.2481	0.3065	0.3469	0.2349	6.3242	1.7176	3.3376	14	44	0.472500509444323	0	1
"45"	14	46	1	0	0	1	7	-1	0	2.087	-4.6069	2.4142	5.8692	2.1249	-2.0069	-8.2147	-1.0553	5.3316	6.1689	3.553	-5.9506	-7.955	9.9199	2.9159	-2.3677	-1.4793	-3.4325	0.5013	-3.4558	2.0265	0.333	0.333	0.333	0.333	0.333	0.333	0.333	0.333	0.333	0.333	0.333	0.333	0.333	0.333	0.333	0.333	0.333	0.333	0.333	6.327	1.5485	3.6374	14	45	0.735727628095064	0	1
"46"	14	14	1	4	5.96	0	5	1	1	1.532	5.0734	3.9019	13.3741	11.3622	6.0158	3.0975	3.5894	1.3132	2.9029	8.1562	13.7943	8.2227	8.1101	3.7773	-5.9729	4.5667	5.0891	12.961	-0.4976	10.1764	0.3187	0.3978	0.2831	0.2404	0.3165	0.4306	0.2018	0.2489	0.4421	0.4139	0.3335	0.444	0.3143	0.4029	0.2508	0.2853	0.4525	0.2493	0.2911	6.3173	1.5172	3.0497	14	46	0.4265740713184	1	0
"47"	14	56	1	4	5.96	0	7	1	1	2.378	3.9453	11.5765	3.2832	0.321	-0.2201	17.5697	6.8101	1.105	5.3253	6.0753	8.2299	11.4552	7.8164	6.7293	4.5327	0.3362	1.5591	11.3445	0.1223	12.1937	0.3207	0.2003	0.3843	0.4153	0.5003	0.3096	0.4013	0.4947	0.3676	0.24	0.3752	0.4773	0.2353	0.2841	0.368	0.2763	0.2108	0.2697	0.2044	6.3351	1.5111	3.8954	14	47	0.86625979826859	1	0
"48"	14	28	1	4	5.96	0	6	1	1	1.845	7.0758	-2.1206	8.6885	9.8095	-1.572	12.0228	5.8239	-2.7478	7.1467	6.843	11.1243	4.7233	0.2374	9.3331	3.1522	0.6513	9.8366	8.4144	14.519	4.4729	0.4611	0.3568	0.2539	0.3394	0.2994	0.2328	0.3118	0.2004	0.3642	0.4045	0.3069	0.4037	0.4734	0.4175	0.2182	0.3506	0.2412	0.4601	0.2241	6.3201	1.4447	3.2961	14	48	0.612479277492491	1	0
"49"	14	12	1	1	1.49	0	8	1	1	2.45	4.6783	-7.9816	0.889	5.937	6.5162	5.3594	5.6967	-5.5745	3.1687	-4.6762	-2.7711	-1.806	-3.0848	5.9838	8.6235	1.2914	8.3249	4.3644	-0.4409	-4.5719	0.2118	0.4056	0.2062	0.3394	0.4886	0.2019	0.2523	0.4757	0.3105	0.4821	0.2713	0.3332	0.2152	0.3185	0.2779	0.4633	0.2816	0.3594	0.4291	6.3235	1.528	3.9836	14	49	0.896088024556636	1	0
"50"	14	65	1	-2	-2.98	0	6	-1	1	1.771	-6.5683	-3.6	0.229	0.3761	0.0813	-7.3365	-5.8857	-2.4458	-11.1706	-1.8479	5e-04	-3.9735	-5.0457	-7.629	-1.2587	-10.3737	7.1126	8.173	-3.9631	-2.767	0.2373	0.3298	0.22	0.4193	0.3198	0.3945	0.3691	0.2905	0.5315	0.3864	0.2348	0.2051	0.3957	0.2689	0.3414	0.2941	0.233	0.4498	0.4036	6.3247	1.4542	3.2216	14	50	0.571544358800696	0	1
"51"	14	63	1	4	5.96	1	5	1	1	1.484	2.9016	8.6947	4.9017	6.1328	9.3152	3.5723	12.9926	-1.306	-1.6563	1.3714	4.0937	12.6573	4.7933	9.7248	6.6245	1.9714	2.174	1.8951	14.6683	14.5282	0.333	0.333	0.333	0.333	0.333	0.333	0.333	0.333	0.333	0.333	0.333	0.333	0.333	0.333	0.333	0.333	0.333	0.333	0.333	6.327	1.6868	3.1679	14	51	0.394741144745189	1	0
"52"	14	3	1	-1	-1.49	1	8	-1	1	2.491	-5.1452	3.4892	0.7429	-7.8958	-6.2256	0.4479	-1.0802	3.6724	6.5426	-7.8431	3.8187	-2.0823	2.1028	0.55	-6.2721	1.848	-13.2626	-2.9476	3.4634	-2.0305	0.333	0.333	0.333	0.333	0.333	0.333	0.333	0.333	0.333	0.333	0.333	0.333	0.333	0.333	0.333	0.333	0.333	0.333	0.333	6.327	1.666	4.1756	14	52	0.912684236280043	0	1
"53"	14	61	1	1	1.49	1	9	-1	0	2.692	1.3172	-2.3133	6.4234	1.208	1.2729	13.2191	-2.1055	-3.3868	-1.6223	-1.0193	0.5399	-4.3743	-3.246	4.2202	0.4644	-5.1291	1.0401	9.1249	4.7466	8.7656	0.333	0.333	0.333	0.333	0.333	0.333	0.333	0.333	0.333	0.333	0.333	0.333	0.333	0.333	0.333	0.333	0.333	0.333	0.333	6.327	1.683	4.3927	14	53	0.990284411782481	0	1
"54"	14	67	1	0	0	0	7	-1	1	1.819	-1.4167	5.1832	5.6284	-10.4735	-0.9147	0.5421	-1.0525	-0.7579	0.043	-10.4982	0.5761	-6.8139	9.245	4.1679	4.5304	-4.0691	1.6745	-1.0484	4.139	0.7791	0.2291	0.4406	0.36	0.2269	0.2891	0.2007	0.5087	0.2402	0.269	0.4539	0.2861	0.4521	0.2615	0.4435	0.2354	0.3648	0.2614	0.4785	0.3174	6.3191	1.5517	3.3869	14	54	0.598286899535985	0	1
"55"	14	26	1	1	1.49	0	6	1	1	1.973	2.5364	4.4546	11.5026	6.4261	-3.2318	9.0191	2.6809	5.1498	-3.4394	-6.741	-6.2997	4.4679	-0.9174	6.1926	-2.3783	-0.3769	-2.8887	-0.461	3.3432	0.0462	0.3771	0.5281	0.3009	0.4016	0.3176	0.351	0.2696	0.3675	0.3063	0.3778	0.2432	0.2945	0.4682	0.3298	0.2266	0.4011	0.3094	0.2485	0.2048	6.3237	1.6256	3.6072	14	55	0.679555227040478	1	0
"56"	14	31	1	-1	-1.49	1	5	-1	1	1.406	-1.2224	0.2314	-2.5673	-4.9461	1.0449	-8.6421	0.5217	7.0599	-3.3346	-5.8469	0.5491	-1.8386	9.5964	1.1747	-3.839	-0.4979	-12.1765	1.4327	-6.5579	0.5061	0.333	0.333	0.333	0.333	0.333	0.333	0.333	0.333	0.333	0.333	0.333	0.333	0.333	0.333	0.333	0.333	0.333	0.333	0.333	6.327	1.528	2.9403	14	56	0.340748793388473	0	1
"57"	14	27	1	2	2.98	0	5	-1	0	1.366	1.9874	-2.8386	-3.2313	-1.1219	4.2445	-2.4782	8.8686	4.7604	5.1521	13.4897	4.3355	0.5128	-4.1483	-0.7744	11.6058	3.8463	9.4919	2.5624	1.1508	2.5437	0.2139	0.31	0.5107	0.2154	0.3079	0.3383	0.231	0.2778	0.231	0.4992	0.2935	0.2337	0.3198	0.5252	0.2679	0.5164	0.4852	0.2316	0.3262	6.3345	1.7297	3.1001	14	57	0.311886761148598	0	1
"58"	14	34	1	2	2.98	1	4	1	1	1.087	6.9195	11.2122	5.8386	2.9091	2.8502	5.7671	3.8582	2.62	-0.3658	-1.5963	-7.8116	-5.0308	3.9706	7.7532	2.5093	1.0379	9.8641	9.0801	1.5677	-5.0424	0.333	0.333	0.333	0.333	0.333	0.333	0.333	0.333	0.333	0.333	0.333	0.333	0.333	0.333	0.333	0.333	0.333	0.333	0.333	6.327	1.6582	2.7549	14	58	0.0834216081390724	1	0
"59"	14	54	1	1	1.49	0	3	1	1	0.989	3.8208	4.5693	6.0452	-1.681	8.0134	9.8966	1.0381	-0.9353	8.7852	3.9104	-9.1736	2.8849	-6.2003	2.6967	0.9978	4.3236	-5.645	-2.814	-0.4378	-1.2942	0.3197	0.2365	0.4449	0.2774	0.2045	0.2944	0.4728	0.4465	0.3633	0.5306	0.2503	0.3959	0.4962	0.2963	0.2274	0.2003	0.2416	0.4138	0.2184	6.3308	1.7322	2.7237	14	59	-0.0110609473594249	1	0
"60"	14	58	1	-2	-2.98	1	3	-1	1	0.988	-4.9444	-2.6787	-3.8235	-5.1358	-7.6997	-2.0141	-5.8801	-0.6191	-5.8688	-0.9101	5.6534	4.9899	-14.3304	-6.9887	0.3236	-4.2397	4.33	-0.1878	-9.2215	-1.4678	0.333	0.333	0.333	0.333	0.333	0.333	0.333	0.333	0.333	0.333	0.333	0.333	0.333	0.333	0.333	0.333	0.333	0.333	0.333	6.327	1.4034	2.4057	14	60	-0.0120725812342692	0	1
"61"	14	16	1	-2	-2.98	1	3	-1	1	0.756	-5.1128	-10.2354	-0.8981	-4.1746	-6.5776	0.5417	-4.5117	4.6889	-6.5076	-8.3677	-6.4032	-4.498	-3.812	1.7357	-0.4338	-2.6164	2.953	4.2275	-14.0072	3.5932	0.333	0.333	0.333	0.333	0.333	0.333	0.333	0.333	0.333	0.333	0.333	0.333	0.333	0.333	0.333	0.333	0.333	0.333	0.333	6.327	1.7014	2.4572	14	61	-0.279713902802604	0	1
"62"	14	5	1	1	1.49	1	3	-1	0	0.834	-3.1979	-0.9295	6.5511	-3.5806	9.97	0.4482	3.2551	-3.453	10.5186	1.4988	-4.7987	8.6755	3.1493	-2.0245	-0.7819	3.6831	4.1006	0.5492	-7.5856	3.7131	0.333	0.333	0.333	0.333	0.333	0.333	0.333	0.333	0.333	0.333	0.333	0.333	0.333	0.333	0.333	0.333	0.333	0.333	0.333	6.327	1.4157	2.2517	14	62	-0.18152187662339	0	1
"63"	14	1	1	-4	-5.96	1	4	-1	1	1.185	-7.1364	-4.64	0.9054	-9.5111	-5.0826	-9.8088	-13.9017	0.0898	-6.434	-6.0713	-1.8194	-6.1496	-7.691	-15.1368	0.9318	-10.6321	-1.8582	-11.6288	1.7783	-4.1541	0.333	0.333	0.333	0.333	0.333	0.333	0.333	0.333	0.333	0.333	0.333	0.333	0.333	0.333	0.333	0.333	0.333	0.333	0.333	6.327	1.7328	2.9191	14	63	0.169742774587095	0	1
"64"	14	15	1	-4	-5.96	1	4	-1	1	1.02	-5.6465	-19.1042	-6.9844	-4.4962	-6.4747	-1.1401	1.3927	-10.7638	-1.1205	-9.327	-0.9229	-4.0035	-6.2547	-9.3274	-5.4941	-7.3647	-7.9728	1.9952	-3.6934	-11.4762	0.333	0.333	0.333	0.333	0.333	0.333	0.333	0.333	0.333	0.333	0.333	0.333	0.333	0.333	0.333	0.333	0.333	0.333	0.333	6.327	1.6776	2.704	14	64	0.0198026272961797	0	1
"65"	14	29	1	-4	-5.96	1	4	-1	1	1	-4.8743	-4.6981	-8.3064	-5.9908	-9.9068	-1.6649	-18.1678	-3.8238	-6.122	-2.7044	-5.2992	-1.0399	-3.3484	-5.0277	-15.7317	-0.6346	-12.871	-4.987	-0.29	-2.2196	0.333	0.333	0.333	0.333	0.333	0.333	0.333	0.333	0.333	0.333	0.333	0.333	0.333	0.333	0.333	0.333	0.333	0.333	0.333	6.327	1.4631	2.4675	14	65	0	0	1
"66"	14	32	1	0	0	1	3	1	0	0.993	-1.1362	7.2108	6.5816	4.3065	-2.728	-6.7103	6.5397	-1.9961	-2.1626	-5.7623	3.1871	-9.7132	0.7288	-0.3644	7.7353	-3.5681	2.1749	3.2648	-5.9644	-0.0488	0.333	0.333	0.333	0.333	0.333	0.333	0.333	0.333	0.333	0.333	0.333	0.333	0.333	0.333	0.333	0.333	0.333	0.333	0.333	6.327	1.5155	2.5101	14	66	-0.00702461493696447	1	0
"67"	14	57	1	-4	-5.96	1	4	-1	1	1.178	-3.1491	-8.6186	-4.3731	-6.5193	-11.3521	-2.4561	-4.503	-8.6103	-14.8255	-7.7318	-11.2954	-13.2574	-6.9786	2.1068	-0.1167	-5.1267	-10.4116	-6.757	2.1249	2.4283	0.333	0.333	0.333	0.333	0.333	0.333	0.333	0.333	0.333	0.333	0.333	0.333	0.333	0.333	0.333	0.333	0.333	0.333	0.333	6.327	1.6828	2.8787	14	67	0.163818085229395	0	1
"68"	14	23	1	-2	-2.98	0	7	-1	1	2.152	-5.797	0.9085	2.6792	-5.1554	-6.1766	-11.6475	-7.8328	-7.411	-3.2018	1.1274	-4.6051	-4.1285	-3.9054	2.0805	-10.1183	-0.8492	1.5028	1.0843	8.2918	-4.7702	0.3161	0.5025	0.2004	0.2917	0.4992	0.2282	0.3863	0.3541	0.2741	0.2005	0.48	0.3202	0.2839	0.4755	0.2016	0.2495	0.4784	0.2598	0.3231	6.3252	1.591	3.7529	14	68	0.766397642299538	0	1
"69"	14	38	1	-1	-1.49	0	4	-1	1	1.308	-6.243	0.1479	-5.4428	-7.3087	3.5508	-11.2701	-8.9149	4.1633	-8.8792	4.4729	3.224	1.403	-0.0966	-0.6855	4.7914	4.3098	0.0174	-0.4192	-1.7709	-3.7323	0.4736	0.3682	0.3323	0.4601	0.2633	0.3204	0.2288	0.4563	0.2028	0.4968	0.3334	0.2124	0.2857	0.3686	0.4106	0.2002	0.3235	0.376	0.2236	6.3367	1.4188	2.742	14	69	0.268499253035007	0	1
"70"	14	52	1	-1	-1.49	0	9	-1	1	2.883	-5.6497	1.7919	-6.6077	4.9828	4.5947	-3.5983	-10.7916	-1.8237	-10.8137	-0.943	2.7479	-5.2856	5.2129	-2.9015	3.0507	2.5774	-0.1301	-0.5668	2.1527	-8.1077	0.2029	0.4927	0.3241	0.4561	0.2587	0.4299	0.2464	0.3922	0.3011	0.206	0.3139	0.2279	0.3449	0.3721	0.4245	0.4598	0.2544	0.3462	0.2722	6.3261	1.641	4.5334	14	70	1.05883141865627	0	1
"71"	14	57	2	-4	-5.96	1	5	-1	1	1.585	-7.9923	4.4687	-4.3652	-14.813	-11.9639	-2.0643	-9.6908	-0.1579	-5.0245	-5.6918	-2.427	1.5832	-11.2758	-9.4357	-12.1454	-6.6785	-2.9817	-4.116	-6.3081	-10.0533	0.333	0.333	0.333	0.333	0.333	0.333	0.333	0.333	0.333	0.333	0.333	0.333	0.333	0.333	0.333	0.333	0.333	0.333	0.333	6.327	1.5985	3.2029	14	71	0.460584407329244	0	1
"72"	14	59	2	-1	-1.49	1	5	-1	1	1.526	-0.067	0.6129	0.3715	-4.3013	-4.6711	5.8968	4.4617	5.9688	0.5942	-6.692	3.2819	-4.7369	-2.604	-7.5492	-5.5966	7.3117	-4.5712	-10.6591	-4.5009	-1.957	0.333	0.333	0.333	0.333	0.333	0.333	0.333	0.333	0.333	0.333	0.333	0.333	0.333	0.333	0.333	0.333	0.333	0.333	0.333	6.327	1.4225	2.9599	14	72	0.422649932862265	0	1
"73"	14	11	2	0	0	0	4	1	0	1.177	3.7088	9.8679	3.1411	-12.3318	-1.9254	-2.3129	-2.6646	5.4389	-5.748	-1.0463	1.1588	3.6528	-1.9528	2.7199	-3.6927	1.0604	2.9413	-6.6642	2.8628	3.3131	0.531	0.333	0.2684	0.3245	0.2589	0.376	0.2257	0.5104	0.3431	0.2063	0.4229	0.3827	0.2507	0.4345	0.3216	0.24	0.4322	0.211	0.2597	6.3327	1.5113	2.6944	14	73	0.16296882827814	1	0
"74"	14	52	2	-1	-1.49	0	7	-1	1	1.886	-3.1681	-2.8982	1.6066	-1.5651	-6.5944	-4.9444	-10.966	5.8315	2.7172	-0.6248	2.9102	5.5342	-7.6032	4.5649	1.4218	-6.7081	-8.4344	3.1663	1.9929	-5.6078	0.2074	0.4657	0.2834	0.2075	0.2475	0.3765	0.5209	0.2113	0.3917	0.2074	0.4585	0.393	0.3445	0.4249	0.2506	0.2033	0.2741	0.479	0.3764	6.3236	1.5429	3.4366	14	74	0.634458184211266	0	1
"75"	14	36	2	-4	-5.96	0	4	-1	1	1.161	-9.9695	-7.2175	-5.0019	-1.1469	-4.351	-2.3317	-11.1365	5.144	-6.1568	-4.1651	-6.849	-17.2558	-5.3781	-10.1094	-8.6256	-11.2942	-1.6318	-5.4454	0.981	-7.0736	0.3982	0.2464	0.499	0.2179	0.4385	0.2073	0.258	0.4286	0.2657	0.3976	0.4459	0.2507	0.4466	0.2668	0.4013	0.3363	0.2185	0.3841	0.2142	6.3214	1.4051	2.578	14	75	0.149281702715754	0	1
"76"	14	40	2	1	1.49	0	5	1	1	1.648	1.2783	7.2492	-0.2462	4.5464	0.5867	5.0225	2.2079	-14.7885	-1.42	0.5841	6.2636	0.0427	0.7739	-0.6132	4.5684	2.2689	5.4841	6.5109	-5.6163	5.3337	0.4016	0.2166	0.355	0.5078	0.3179	0.4838	0.3382	0.4268	0.3628	0.2897	0.3248	0.2385	0.4682	0.2131	0.3238	0.3508	0.2033	0.284	0.2109	6.3175	1.5372	3.1991	14	76	0.49956243148728	1	0
"77"	14	10	2	-1	-1.49	0	4	-1	1	1.176	-2.8575	-2.7771	-0.4056	-2.2252	-6.3399	2.7365	-0.7343	0.6727	10.6132	-11.1857	-4.2449	0.4753	-8.1167	-6.293	-0.8896	1.6467	-1.5006	-3.8541	6.9365	-1.734	0.2896	0.3569	0.33	0.2124	0.4103	0.275	0.2102	0.2541	0.53	0.3372	0.3946	0.2232	0.4434	0.4924	0.2226	0.2824	0.2522	0.3514	0.4558	6.3237	1.6389	2.8266	14	77	0.162118849476435	0	1
"78"	14	19	2	1	1.49	1	5	1	1	1.428	2.2896	5.387	3.5748	6.3534	6.9478	7.6218	-1.3846	-2.6934	4.0545	-8.3529	-3.1324	-0.4883	0.3691	-3.6373	-6.8838	3.413	5.0566	-2.9142	3.1722	9.264	0.333	0.333	0.333	0.333	0.333	0.333	0.333	0.333	0.333	0.333	0.333	0.333	0.333	0.333	0.333	0.333	0.333	0.333	0.333	6.327	1.4266	2.8623	14	78	0.356274863917393	1	0
"79"	14	13	2	2	2.98	0	6	1	1	2.133	7.3899	-3.3246	-2.6686	6.1925	5.709	6.8604	0.9335	-1.5784	9.374	3.6	1.1108	-7.7034	9.5549	4.4355	12.5579	-0.4974	4.8675	2.4913	-0.1885	-1.4715	0.4172	0.3278	0.2717	0.429	0.2684	0.47	0.2543	0.4475	0.3607	0.2407	0.3507	0.4047	0.2642	0.2927	0.3595	0.3899	0.296	0.2638	0.2086	6.3174	1.4943	3.6338	14	79	0.757529439489213	1	0
"80"	14	47	2	1	1.49	1	3	1	1	0.958	1.1281	0.6514	4.4126	3.7699	-2.2823	2.9171	3.0858	2.7504	9.1836	8.8551	5.3774	-2.4798	-1.2992	0.0213	9.2686	-9.73	-3.8511	4.3292	-0.9719	-5.8735	0.333	0.333	0.333	0.333	0.333	0.333	0.333	0.333	0.333	0.333	0.333	0.333	0.333	0.333	0.333	0.333	0.333	0.333	0.333	6.327	1.4951	2.4589	14	80	-0.0429075010112765	1	0
"81"	14	53	2	0	0	0	6	-1	0	1.617	-4.753	-4.6532	0.3254	3.1582	-6.307	-0.648	1.0346	2.3028	-2.5035	9.3978	4.9908	-5.9109	10.3546	1.0404	-5.1362	-2.812	-2.9459	-3.0199	7.2383	0.7053	0.3107	0.4166	0.2572	0.3484	0.2356	0.463	0.2065	0.5239	0.4726	0.3543	0.2434	0.4064	0.2414	0.384	0.2194	0.3339	0.2843	0.4003	0.2252	6.3269	1.6553	3.2848	14	81	0.48057258059497	0	1
"82"	14	45	2	-1	-1.49	1	6	1	0	1.815	-2.4159	-0.1215	-3.7961	5.9421	-2.2382	-0.0839	1.7458	-4.4746	-6.8914	4.8955	-4.6835	0.1507	4.0479	8.8352	-6.7915	0.3777	-4.1365	-12.9857	-5.2836	-2.4949	0.333	0.333	0.333	0.333	0.333	0.333	0.333	0.333	0.333	0.333	0.333	0.333	0.333	0.333	0.333	0.333	0.333	0.333	0.333	6.327	1.4462	3.2657	14	82	0.596085467716814	1	0
"83"	14	26	2	1	1.49	0	5	1	1	1.684	3.1844	-6.579	0.3069	-4.2191	0.9722	5.2721	1.2231	0.3637	-5.8532	9.8	9.1844	-5.6608	1.7057	1.5753	1.1178	7.6525	-2.6744	5.3717	8.1255	-2.3293	0.4279	0.2882	0.2279	0.3943	0.5048	0.3056	0.5167	0.2941	0.2157	0.3245	0.2146	0.3034	0.2	0.3751	0.3277	0.3914	0.2642	0.524	0.2317	6.332	1.4783	3.1685	14	83	0.521171915820135	1	0
"84"	14	18	2	0	0	1	3	1	0	0.85	-0.9881	5.6254	-3.0262	-9.1193	2.2563	-3.9376	-1.9233	-2.3489	2.437	6.5663	-3.7689	7.3975	-4.1558	-10.6765	5.6086	6.3639	2.7266	-0.8271	0.0973	1.091	0.333	0.333	0.333	0.333	0.333	0.333	0.333	0.333	0.333	0.333	0.333	0.333	0.333	0.333	0.333	0.333	0.333	0.333	0.333	6.327	1.5217	2.3676	14	84	-0.162518929497775	1	0
"85"	14	41	2	2	2.98	0	4	1	1	1.14	-1.9466	-1.6073	11.4881	9.2455	0.7198	10.7767	0.544	1.0795	-0.6361	2.9669	1.4625	3.7186	9.3497	3.8506	-5.38	-2.5897	11.6526	2.1339	-0.622	4.4687	0.2209	0.2757	0.3594	0.4889	0.3733	0.2016	0.3712	0.4493	0.2892	0.2459	0.4081	0.2936	0.3997	0.2558	0.3348	0.3822	0.4408	0.2505	0.2949	6.3359	1.6332	2.7905	14	85	0.131028262406404	1	0
"86"	14	68	2	1	1.49	0	7	1	1	2.253	1.6294	-4.2537	6.4269	-3.0852	9.1552	9.6872	8.6794	4.8572	2.8487	3.0397	-0.275	3.376	-4.9276	1.5611	-6.8151	3.0776	-4.4632	4.7038	-1.9181	-5.2159	0.4826	0.203	0.5181	0.2048	0.3602	0.2197	0.2966	0.3455	0.3019	0.3982	0.3678	0.4617	0.2146	0.4915	0.3232	0.2583	0.2034	0.2957	0.3804	6.3272	1.4257	3.6866	14	86	0.812262661450107	1	0
"87"	14	20	2	2	2.98	1	3	1	1	0.9	5.3417	10.315	0.9221	-1.3194	1.0361	8.6766	-4.627	-0.659	-1.938	3.2949	0.1541	2.0514	2.1773	1.515	9.3142	-2.6684	5.3774	15.2506	4.8489	0.5383	0.333	0.333	0.333	0.333	0.333	0.333	0.333	0.333	0.333	0.333	0.333	0.333	0.333	0.333	0.333	0.333	0.333	0.333	0.333	6.327	1.4682	2.3836	14	87	-0.105360515657826	1	0
"88"	14	14	2	4	5.96	0	4	1	1	1.283	3.3108	-0.4491	9.6797	0.05	5.6836	4.61	5.4838	2.4997	5.6194	-4.5005	18.1566	9.8927	13.9981	7.0176	7.817	3.6531	7.294	3.7868	10.2141	4.5975	0.2807	0.3895	0.2308	0.4736	0.2451	0.3721	0.4067	0.2677	0.315	0.509	0.3829	0.4407	0.2019	0.2789	0.3103	0.2266	0.3564	0.3944	0.2425	6.3248	1.4452	2.7333	14	88	0.249201085633499	1	0
"89"	14	63	2	4	5.96	1	3	1	1	0.986	2.371	8.2674	6.4919	9.5521	0.9532	3.3986	9.4899	11.4522	1.8541	7.998	4.5704	8.0802	5.1207	-2.8383	4.2633	4.9424	19.9949	7.5849	5.2085	-0.9712	0.333	0.333	0.333	0.333	0.333	0.333	0.333	0.333	0.333	0.333	0.333	0.333	0.333	0.333	0.333	0.333	0.333	0.333	0.333	6.327	1.6328	2.6369	14	89	-0.0140989243795016	1	0
"90"	14	39	2	0	0	0	6	-1	0	2.114	0.1679	-3.7764	6.334	2.2415	3.8213	-7.0488	-1.4427	-3.1145	1.2532	0.7011	0.4451	-2.2432	4.4418	10.937	5.0399	-9.6214	-4.6725	-2.3212	-5.0825	5.7452	0.2159	0.3219	0.3927	0.5176	0.2802	0.4561	0.3352	0.4533	0.2595	0.3217	0.2493	0.2077	0.3572	0.44	0.2942	0.2409	0.3113	0.2332	0.4472	6.3352	1.5025	3.6314	14	90	0.748581887448046	0	1
"91"	14	16	2	-2	-2.98	1	4	-1	1	1.02	-4.8776	-12.4969	2.1519	1.331	7.0648	2.5666	0.8237	0.0148	-6.5243	-5.1038	-5.5724	-7.0322	-6.4239	-3.7596	-5.8912	-7	1.0455	-2.9854	-9.9175	2.4098	0.333	0.333	0.333	0.333	0.333	0.333	0.333	0.333	0.333	0.333	0.333	0.333	0.333	0.333	0.333	0.333	0.333	0.333	0.333	6.327	1.5252	2.5541	14	91	0.0198026272961797	0	1
"92"	14	51	2	-2	-2.98	0	8	-1	1	2.361	-2.4724	-0.0578	-2.8911	2.6004	5.5096	-6.4693	-13.7718	0.2888	-1.9473	-3.0026	-3.1543	-8.3081	-4.1413	-7.2268	-10.3379	1.0658	2.0289	0.3467	1.3694	-10.8565	0.2054	0.3464	0.4696	0.2227	0.3633	0.4219	0.2528	0.2268	0.5104	0.2428	0.3218	0.2562	0.4835	0.4031	0.5313	0.2341	0.3458	0.263	0.2282	6.329	1.5083	3.8787	14	92	0.859085258103376	0	1
"93"	14	50	2	-4	-5.96	0	4	-1	1	0.847	-7.7694	-4.9478	-12.743	-11.9766	1.2807	-4.3002	-4.3082	-6.7724	-1.4591	-3.523	0.9351	-6.299	-4.7945	-4.6372	-0.2637	-0.4442	-13.3152	-6.3218	-17.5918	-10.1421	0.2219	0.3458	0.2318	0.3299	0.2047	0.3274	0.5327	0.4429	0.2831	0.3143	0.3778	0.227	0.2522	0.3316	0.445	0.3178	0.35	0.4826	0.3012	6.3197	1.4042	2.2643	14	93	-0.166054584330083	0	1
"94"	14	8	2	-4	-5.96	0	2	-1	1	0.618	-5.9412	-10.9712	-9.7696	3.9217	-11.9839	3.2617	-2.2505	-14.0386	-6.1781	-4.6563	-2.3495	-9.7999	-10.3503	3.3148	-4.5401	-7.5671	-8.4358	-4.5516	-6.2053	-8.7964	0.2024	0.4233	0.2624	0.3534	0.2396	0.5326	0.2373	0.341	0.4018	0.205	0.4921	0.4037	0.4354	0.3071	0.2047	0.2581	0.3219	0.4157	0.2988	6.3363	1.6663	2.2857	14	94	-0.481266821524446	0	1
"95"	14	55	2	2	2.98	0	4	1	1	1.205	6.316	7.1855	3.4391	7.3099	-5.6971	-4.2454	12.5681	2.6485	4.7224	6.8277	-2.5748	5.6327	-0.1148	12.5613	0.3341	1.6139	0.7298	-0.3899	0.1789	0.0247	0.3379	0.449	0.2063	0.4634	0.3798	0.2657	0.2119	0.4181	0.3099	0.4341	0.2464	0.3683	0.2259	0.2545	0.3393	0.3963	0.2818	0.4043	0.3293	6.3222	1.61	2.8223	14	95	0.186479566942618	1	0
"96"	14	30	2	-2	-2.98	1	4	-1	1	1.274	-5.3788	-7.3926	-1.9482	-4.2568	-4.877	1.7371	-9.0875	0.6338	-0.928	9.0414	-10.0528	-6.8381	-3.1941	-2.3477	-7.7356	-10.6886	1.6839	4.3854	-2.2913	0.3933	0.333	0.333	0.333	0.333	0.333	0.333	0.333	0.333	0.333	0.333	0.333	0.333	0.333	0.333	0.333	0.333	0.333	0.333	0.333	6.327	1.5296	2.8081	14	96	0.242161557149972	0	1
"97"	14	42	2	4	5.96	0	2	1	1	0.554	8.0584	16.5437	11.9442	3.172	7.0726	1.6672	-0.3175	-0.9271	10.7159	5.7482	-0.4986	5.1447	10.2913	-0.9096	2.2592	6.5643	11.1433	7.6968	10.9912	3.0592	0.2015	0.3747	0.2608	0.2879	0.3723	0.4922	0.2543	0.3136	0.2585	0.5164	0.4095	0.2383	0.4327	0.2163	0.2882	0.447	0.2272	0.3204	0.4204	6.3323	1.6575	2.2218	14	97	-0.590590592234853	1	0
"98"	14	46	2	0	0	1	7	-1	1	2.073	-4.2085	5.8953	13.362	2.4172	1.7647	-3.3762	-3.3253	6.2916	-1.6354	-4.0775	0.089	1.3157	-2.5962	-2.3193	6.8482	-4.1001	-5.3682	-0.1003	-6.0949	-1.6324	0.333	0.333	0.333	0.333	0.333	0.333	0.333	0.333	0.333	0.333	0.333	0.333	0.333	0.333	0.333	0.333	0.333	0.333	0.333	6.327	1.5841	3.6569	14	98	0.728996833453643	0	1
"99"	14	4	2	0	0	1	4	-1	0	1.231	-0.6341	-6.3333	-5.5781	-3.4606	4.8206	-6.3711	-2.726	-7.2471	2.0392	-0.0942	-5.0728	4.2096	0.3078	5.1249	3.7185	6.8824	-0.1769	1.2527	10.6479	-0.9161	0.333	0.333	0.333	0.333	0.333	0.333	0.333	0.333	0.333	0.333	0.333	0.333	0.333	0.333	0.333	0.333	0.333	0.333	0.333	6.327	1.6089	2.8486	14	99	0.207826847202317	0	1
"100"	14	38	2	-1	-1.49	0	4	1	0	1.287	-1.2647	2.7197	-4.3404	-1.2339	0.0162	-7.461	-1.783	1.2006	-2.5675	-6.8048	7.5869	-8.1066	-5.9487	8.324	-0.8868	-5.9965	-8.362	2.7712	-0.2287	3.9728	0.4522	0.2973	0.2348	0.5245	0.301	0.2127	0.2853	0.2428	0.3031	0.2002	0.318	0.3897	0.4951	0.2301	0.3396	0.3046	0.359	0.4453	0.3982	6.3336	1.4914	2.788	14	100	0.25231392861399	1	0
"101"	14	62	2	2	2.98	1	3	1	1	0.986	7.1512	8.0227	10.0661	4.8518	2.3932	6.8511	2.1177	-3.3568	-3.4236	6.8889	11.6114	3.6657	-3.7842	5.3658	1.4928	2.2673	2.9422	-2.9799	5.3917	-6.1467	0.333	0.333	0.333	0.333	0.333	0.333	0.333	0.333	0.333	0.333	0.333	0.333	0.333	0.333	0.333	0.333	0.333	0.333	0.333	6.327	1.5089	2.5038	14	101	-0.0140989243795016	1	0
"102"	14	58	2	-2	-2.98	1	3	-1	1	0.94	-3.7826	-4.3691	-5.9944	-6.8032	-7.918	-1.8705	-7.7279	-6.7037	5.5554	-2.8154	-2.3614	2.2038	-5.3518	1.8665	-14.1108	2.8368	2.2555	-5.8113	-0.4069	3.534	0.333	0.333	0.333	0.333	0.333	0.333	0.333	0.333	0.333	0.333	0.333	0.333	0.333	0.333	0.333	0.333	0.333	0.333	0.333	6.327	1.4245	2.3742	14	102	-0.0618754037180875	0	1
"103"	14	22	2	-4	-5.96	0	7	-1	1	2.067	-8.771	2.588	-1.6803	-1.3978	-3.6712	-12.9701	-3.4127	-4.9424	-4.4976	-2.6355	-4.948	-9.5534	-7.5642	-12.0426	-6.2144	-12.0075	3.3542	-3.2019	-13.4513	-13.4407	0.2195	0.5116	0.2384	0.2894	0.3198	0.2621	0.4302	0.3656	0.2334	0.3325	0.2547	0.4155	0.3536	0.4174	0.3157	0.3545	0.3043	0.2633	0.4441	6.3259	1.5029	3.5842	14	103	0.726098280699631	0	1
"104"	14	34	2	2	2.98	1	4	1	1	1.228	3.6283	2.604	6.9729	-5.6105	14.0142	4.7195	4.7855	7.4777	-1.8359	2.7613	2.3125	0.7432	-2.7173	-6.6127	3.9466	1.795	8.1728	4.2327	8.8665	0.9502	0.333	0.333	0.333	0.333	0.333	0.333	0.333	0.333	0.333	0.333	0.333	0.333	0.333	0.333	0.333	0.333	0.333	0.333	0.333	6.327	1.4565	2.695	14	104	0.205386829724951	1	0
"105"	14	35	2	4	5.96	1	3	1	1	0.984	5.7669	0.3041	13.6292	12.133	7.112	8.642	9.3006	5.5762	-0.3605	8.4253	9.7516	2.882	-2.1405	4.6642	5.9249	1.8644	9.827	13.2802	-4.6161	8.0128	0.333	0.333	0.333	0.333	0.333	0.333	0.333	0.333	0.333	0.333	0.333	0.333	0.333	0.333	0.333	0.333	0.333	0.333	0.333	6.327	1.609	2.6012	14	105	-0.0161293819298836	1	0
"106"	14	3	2	-1	-1.49	1	4	-1	1	1.203	-1.1359	-2.0952	-2.3708	3.1452	-10.5055	7.0876	-3.7246	4.7109	-6.3439	0.5197	3.5515	-5.923	-8.0584	4.6392	2.2971	-1.0103	-3.315	-9.0864	-1.5679	1.0574	0.333	0.333	0.333	0.333	0.333	0.333	0.333	0.333	0.333	0.333	0.333	0.333	0.333	0.333	0.333	0.333	0.333	0.333	0.333	6.327	1.6062	2.8201	14	106	0.184818436992542	0	1
"107"	14	70	2	4	5.96	0	3	1	1	0.94	3.5408	9.7061	13.0534	-5.7127	-0.6118	3.535	3.463	11.4646	5.4501	0.7096	3.4601	6.9798	6.7456	8.6538	13.2985	8.3136	3.8908	10.5443	0.5758	10.4944	0.4422	0.2595	0.3218	0.2114	0.253	0.3727	0.274	0.3626	0.2756	0.456	0.3234	0.4761	0.2477	0.4231	0.4654	0.2644	0.3359	0.2333	0.3191	6.3175	1.5094	2.4577	14	107	-0.0618754037180875	1	0
"108"	14	2	2	-2	-2.98	1	4	1	0	1.049	-0.966	-3.0345	-3.1006	-4.146	1.8508	-1.7706	-13.1171	-3.6527	-5.673	-7.1658	-2.2034	-1.7206	1.2644	-12.2449	-0.1595	9.3471	1.7484	-3.3097	-4.0871	-8.3377	0.333	0.333	0.333	0.333	0.333	0.333	0.333	0.333	0.333	0.333	0.333	0.333	0.333	0.333	0.333	0.333	0.333	0.333	0.333	6.327	1.5349	2.6	14	108	0.0478373294141601	1	0
"109"	14	66	2	-1	-1.49	0	4	-1	1	1.09	-5.0451	-3.8867	1.9105	-8.1199	-5.4227	-1.9453	-7.43	4.2404	-1.2003	-5.625	5.5039	-5.7098	3.5098	0.1294	12.5872	-3.1125	-4.3007	-3.3896	0.1913	-4.315	0.3646	0.4347	0.222	0.2808	0.4329	0.2629	0.3724	0.2977	0.3855	0.476	0.3345	0.2517	0.2153	0.4839	0.4442	0.2234	0.3549	0.2044	0.2783	6.3201	1.7019	2.7906	14	109	0.0861776962410524	0	1
"110"	14	5	2	1	1.49	1	3	1	1	0.887	4.7963	5.6574	5.3232	-3.1264	5.4679	7.555	-0.138	10.9112	-1.904	-6.8543	7.3082	3.3839	0.6974	1.1625	1.3132	-2.3104	5.3931	-8.055	-3.955	-1.6064	0.333	0.333	0.333	0.333	0.333	0.333	0.333	0.333	0.333	0.333	0.333	0.333	0.333	0.333	0.333	0.333	0.333	0.333	0.333	6.327	1.4466	2.3379	14	110	-0.119910296672558	1	0
"111"	14	27	2	2	2.98	0	4	1	1	1.15	0.8281	0.3233	6.2398	2.7525	-6.8488	2.6469	7.7014	1.0845	-8.3075	4.4629	10.7286	4.104	2.4519	-2.2858	7.7336	8.282	-1.1088	9.178	5.466	5.043	0.3489	0.3077	0.4427	0.2613	0.2302	0.3778	0.2113	0.3207	0.504	0.3474	0.4041	0.287	0.3499	0.2623	0.3404	0.3728	0.2053	0.2543	0.489	6.317	1.4279	2.5839	14	111	0.139761942375159	1	0
"112"	14	37	2	-2	-2.98	0	4	1	0	1.01	-1.2039	-1.0422	4.3072	-3.1289	-6.9659	-3.7849	-14.7749	-3.7343	3.2453	0.7573	-3.2815	-0.7931	-4.1972	-5.8632	-11.4466	-4.6674	-7.2634	5.6454	-3.2705	1.4392	0.3488	0.2725	0.3372	0.4955	0.3037	0.2507	0.4042	0.2421	0.3481	0.444	0.2181	0.4225	0.2397	0.2075	0.3868	0.436	0.3704	0.2806	0.3253	6.3337	1.5505	2.5609	14	112	0.00995033085316809	1	0
"113"	14	29	2	-4	-5.96	1	3	-1	1	0.956	-4.4221	-12.0968	-1.2151	-3.3217	-1.1782	-9.288	-5.3809	-5.2377	-0.48	-5.3101	-13.96	-6.4599	-12.0849	-15.9975	-7.4891	2.2919	-5.6962	1.5539	-4.71	-7.2206	0.333	0.333	0.333	0.333	0.333	0.333	0.333	0.333	0.333	0.333	0.333	0.333	0.333	0.333	0.333	0.333	0.333	0.333	0.333	6.327	1.6442	2.6068	14	113	-0.0449973659307358	0	1
"114"	14	21	2	4	5.96	1	3	1	1	0.819	2.9208	7.9057	6.4658	2.64	0.2603	0.0147	3.9331	16.4248	2.6503	13.1882	7.3888	15.98	-0.1374	3.9258	5.151	5.8986	3.0521	7.6247	11.5358	3.7004	0.333	0.333	0.333	0.333	0.333	0.333	0.333	0.333	0.333	0.333	0.333	0.333	0.333	0.333	0.333	0.333	0.333	0.333	0.333	6.327	1.5799	2.4031	14	114	-0.199671195129068	1	0
"115"	14	43	2	-4	-5.96	1	3	-1	1	0.731	-5.1123	-14.9101	6.3651	-6.2635	-2.4292	-13.2427	-8.2753	-8.3921	-8.1014	0.166	-10.6406	-12.236	-2.628	-2.6786	-8.9085	-3.4662	-2.6775	-4.1369	-2.9172	-8.6606	0.333	0.333	0.333	0.333	0.333	0.333	0.333	0.333	0.333	0.333	0.333	0.333	0.333	0.333	0.333	0.333	0.333	0.333	0.333	6.327	1.6529	2.3817	14	115	-0.313341819232359	0	1
"116"	14	54	2	1	1.49	0	7	-1	0	2.338	-3.3032	13.3731	4.6257	-8.0657	3.1971	1.5638	-3.7449	-2.4477	9.1413	0.0072	-2.2845	0.3727	-1.9036	2.5689	5.9619	-1.771	4.64	-2.8108	3.9462	5.6735	0.3959	0.2279	0.4359	0.3551	0.4426	0.3844	0.4753	0.2066	0.3201	0.4723	0.3479	0.2002	0.2397	0.2943	0.2308	0.4286	0.3653	0.2893	0.2204	6.3327	1.6401	3.9885	14	116	0.849295863049877	0	1
"117"	14	12	2	1	1.49	0	6	-1	0	1.94	0.6731	1.4548	5.0564	-11.4378	4.8607	11.9323	-3.0906	7.3234	2.1168	0.5729	0.7551	-5.5077	-3.6298	0.1197	2.6365	2.2808	1.6004	3.2173	2.5949	5.6001	0.2629	0.3434	0.2578	0.4638	0.2931	0.464	0.251	0.303	0.2514	0.456	0.3153	0.358	0.4174	0.2178	0.2492	0.4641	0.3001	0.2427	0.4145	6.3253	1.6509	3.6074	14	117	0.662687973075237	0	1
"118"	14	61	2	1	1.49	1	6	-1	0	1.949	1.1238	-2.3519	-0.6324	-0.329	6.2486	-3.8334	-11.0002	-3.0292	3.4862	7.8724	0.9964	11.0724	5.1413	3.8364	-0.9559	2.4073	0.3	6.7103	-1.5722	4.9351	0.333	0.333	0.333	0.333	0.333	0.333	0.333	0.333	0.333	0.333	0.333	0.333	0.333	0.333	0.333	0.333	0.333	0.333	0.333	6.327	1.5894	3.55	14	118	0.667316420525424	0	1
"119"	14	67	2	0	0	0	9	-1	0	2.708	3.1103	1.3337	7.9141	-4.2354	-1.2692	-6.9256	-0.4656	-4.5217	-3.3683	3.8521	-1.2688	1.9594	3.512	-4.692	3.6362	-2.5225	-0.7889	13.072	-3.7486	-4.892	0.3677	0.2489	0.4456	0.3791	0.2801	0.3136	0.2733	0.3154	0.3503	0.4291	0.4646	0.2102	0.286	0.2269	0.2848	0.2565	0.4379	0.4705	0.281	6.3213	1.5569	4.2758	14	119	0.996210355050029	0	1
"120"	14	33	2	1	1.49	1	7	1	1	2.135	-0.976	3.391	-2.5029	8.3621	5.7692	11.1199	-3.2533	-3.8404	-2.3503	1.4376	0.5736	-1.5992	-6.9206	-2.5374	10.6195	2.7232	2.1725	-2.5013	6.2429	2.3325	0.333	0.333	0.333	0.333	0.333	0.333	0.333	0.333	0.333	0.333	0.333	0.333	0.333	0.333	0.333	0.333	0.333	0.333	0.333	6.327	1.5391	3.686	14	120	0.758466646680588	1	0
"121"	14	28	2	4	5.96	0	3	1	1	0.995	7.8121	12.2473	3.5152	8.8588	4.5896	1.4891	1.0614	0.4857	1.5143	12.3946	2.3846	9.726	10.1534	13.2693	0.1383	12.5327	6.17	-1.749	10.1935	0.4464	0.4097	0.364	0.4729	0.2309	0.5192	0.2817	0.222	0.4716	0.4294	0.3278	0.2245	0.2517	0.3864	0.2924	0.2183	0.3844	0.2742	0.2998	0.2566	6.3175	1.4117	2.4123	14	121	-0.00501254182354429	1	0
"122"	14	9	2	-2	-2.98	0	6	-1	1	1.771	-7.5439	-0.9442	1.6594	-0.9799	-15.1001	-8.6489	-1.6422	-3.3976	-7.8582	5.7881	1.7106	-8.2819	0.6019	2.5026	-5.0992	-6.7019	0.8132	-2.4947	-2.6449	-1.4742	0.3218	0.3951	0.2857	0.2475	0.419	0.4996	0.4414	0.3236	0.2139	0.3831	0.211	0.2409	0.2672	0.4567	0.323	0.3499	0.2633	0.4359	0.2385	6.3172	1.4417	3.2218	14	122	0.571544358800696	0	1
"123"	14	48	2	2	2.98	1	5	1	1	1.488	5.3606	0.9582	1.2553	5.3096	-2.7611	9.1214	-2.3133	-6.5009	0.8838	10.5212	6.301	2.8661	9.427	6.0797	4.3139	7.7084	-5.7818	-0.2777	0.1556	7.0209	0.333	0.333	0.333	0.333	0.333	0.333	0.333	0.333	0.333	0.333	0.333	0.333	0.333	0.333	0.333	0.333	0.333	0.333	0.333	6.327	1.5316	3.0223	14	123	0.3974329364109	1	0
"124"	14	44	2	-2	-2.98	1	4	-1	1	1.299	-4.6083	-2.5825	-7.8709	-2.0186	8.5265	-4.4147	1.6296	2.8399	-10.8829	-3.0207	0.9138	-5.8416	-9.3392	5.108	-5.1704	-1.7863	-2.7639	-2.0145	-5.9205	-10.729	0.333	0.333	0.333	0.333	0.333	0.333	0.333	0.333	0.333	0.333	0.333	0.333	0.333	0.333	0.333	0.333	0.333	0.333	0.333	6.327	1.5107	2.8163	14	124	0.261594737688462	0	1
"125"	14	15	2	-4	-5.96	1	4	-1	1	1.316	-7.3333	4.7241	-11.4456	1.818	-2.0693	-7.019	0.1701	-9.9109	-4.4166	-8.2306	-7.5052	-8.3879	-2.8914	-9.3791	-5.2011	-12.2225	-8.1205	-13.7893	0.8457	-7.6967	0.333	0.333	0.333	0.333	0.333	0.333	0.333	0.333	0.333	0.333	0.333	0.333	0.333	0.333	0.333	0.333	0.333	0.333	0.333	6.327	1.6058	2.9331	14	125	0.274596832903126	0	1
"126"	14	32	2	0	0	1	4	1	1	1.13	-0.2621	8.5569	-1.2069	-5.219	-4.3919	0.2355	5.3643	-4.9368	-0.4963	-1.2975	2.9665	5.0808	0.8445	0.6376	-6.6723	6.3427	1.312	-12.794	4.8046	0.7238	0.333	0.333	0.333	0.333	0.333	0.333	0.333	0.333	0.333	0.333	0.333	0.333	0.333	0.333	0.333	0.333	0.333	0.333	0.333	6.327	1.6309	2.7639	14	126	0.122217632724249	1	0
"127"	14	60	2	0	0	1	4	1	1	1.228	-1.9636	4.2271	5.2133	2.4284	1.3562	1.5084	-3.8878	-5.7014	1.6807	3.0494	4.3038	-3.7499	5.053	-0.6642	-13.1295	0.9508	-1.7414	-8.9338	4.6109	4.7719	0.333	0.333	0.333	0.333	0.333	0.333	0.333	0.333	0.333	0.333	0.333	0.333	0.333	0.333	0.333	0.333	0.333	0.333	0.333	6.327	1.5709	2.7958	14	127	0.205386829724951	1	0
"128"	14	7	2	4	5.96	1	4	1	1	1.138	3.1516	2.2993	11.262	4.5073	15.5353	6.6008	11.5334	8.1922	1.1656	-0.3521	1.4823	7.7676	3.1427	4.2454	8.2514	15.3198	-1.2608	10.3317	4.4313	-0.2256	0.333	0.333	0.333	0.333	0.333	0.333	0.333	0.333	0.333	0.333	0.333	0.333	0.333	0.333	0.333	0.333	0.333	0.333	0.333	6.327	1.6391	2.7723	14	128	0.129272335704139	1	0
"129"	14	23	2	-2	-2.98	0	4	-1	1	1.036	-4.8536	-1.5599	-8.3882	0.3954	-2.8996	-2.7255	-6.5157	1.1462	-2.3935	0.0372	6.43	-2.7555	3.329	-2.2819	-10.2117	-9.6405	2.6318	-8.6377	-11.7079	0.486	0.3019	0.3274	0.3702	0.4261	0.3131	0.4128	0.21	0.3575	0.2329	0.3454	0.2355	0.405	0.3029	0.4898	0.3345	0.3692	0.2633	0.3587	0.265	6.3211	1.4879	2.5205	14	129	0.0353671438372913	0	1
"130"	14	24	2	-1	-1.49	0	5	1	0	1.474	-3.1542	0.7514	-0.3647	1.9472	-2.6981	-1.2978	-1.2798	6.8931	-1.609	-9.9005	-2.5395	-10.6431	-4.712	1.0721	-12.0392	0.8455	5.1531	1.5148	-2.2831	3.2444	0.4659	0.2433	0.3168	0.2089	0.3388	0.4446	0.2316	0.27	0.458	0.3312	0.2382	0.3578	0.2647	0.3999	0.4278	0.368	0.2785	0.4453	0.2341	6.3233	1.4559	2.9251	14	130	0.387979793767145	1	0
"131"	14	1	2	-4	-5.96	1	3	-1	1	0.949	-8.8207	-9.676	-11.7878	-11.8013	-3.3322	-2.368	-13.3746	-7.9616	-11.4017	-9.0541	-2.488	-13.2932	-7.3161	1.6523	-1.2915	-1.8506	1.1151	-2.3459	0.5772	-3.6579	0.333	0.333	0.333	0.333	0.333	0.333	0.333	0.333	0.333	0.333	0.333	0.333	0.333	0.333	0.333	0.333	0.333	0.333	0.333	6.327	1.4633	2.4327	14	131	-0.0523464803722092	0	1
"132"	14	17	2	-1	-1.49	1	4	-1	1	1.072	-0.1881	-3.9499	-12.2642	2.5771	2.6369	6.6987	-2.2068	-11.768	0.1177	-6.7527	2.9771	-5.718	-6.2999	0.6643	3.6301	-2.9867	-3.5484	2.8903	1.6621	0.2029	0.333	0.333	0.333	0.333	0.333	0.333	0.333	0.333	0.333	0.333	0.333	0.333	0.333	0.333	0.333	0.333	0.333	0.333	0.333	6.327	1.497	2.589	14	132	0.0695260626486103	0	1
"133"	14	49	2	4	5.96	1	2	1	1	0.625	5.1126	14.0759	6.4636	3.6044	8.4455	8.6298	6.4599	12.8758	-0.3395	6.7572	9.5139	5.8977	4.2027	9.8306	3.3984	-3.0666	10.0254	-3.0221	11.6871	-0.4048	0.333	0.333	0.333	0.333	0.333	0.333	0.333	0.333	0.333	0.333	0.333	0.333	0.333	0.333	0.333	0.333	0.333	0.333	0.333	6.327	1.4482	2.0918	14	133	-0.470003629245736	1	0
"134"	14	31	2	-1	-1.49	1	6	1	0	1.953	-4.0826	4.5806	5.0754	1.7192	4.8206	-9.1164	0.3002	-4.1204	-0.0238	-13.0838	1.2288	-1.122	2.3603	-0.6919	-10.7053	-3.7826	2.1851	0.5477	-2.1708	-2.2563	0.333	0.333	0.333	0.333	0.333	0.333	0.333	0.333	0.333	0.333	0.333	0.333	0.333	0.333	0.333	0.333	0.333	0.333	0.333	6.327	1.6198	3.587	14	134	0.669366651894542	1	0
"135"	14	25	2	0	0	0	5	1	0	1.321	-2.977	2.0037	1.478	2.8769	1.5751	-4.6609	-14.2852	0.625	-3.217	1.2521	3.1136	6.8222	-5.8369	-2.8606	2.3127	-0.7169	-4.1364	8.2658	1.0467	6.0883	0.3794	0.2688	0.3429	0.2315	0.2	0.276	0.3658	0.2271	0.3029	0.4669	0.265	0.4822	0.2167	0.5285	0.3661	0.2835	0.4242	0.5089	0.2001	6.3364	1.7125	3.0387	14	135	0.278389025540188	1	0
"136"	14	65	2	-2	-2.98	0	3	-1	1	0.638	-5.3845	-3.1159	-10.4123	-5.9121	-3.5144	-4.8093	1.5019	-2.3249	9.2416	0.1136	-8.5541	-0.5251	-2.139	6.4122	-7.7551	-4.962	-3.7075	-6.6573	2.2933	-7.8443	0.3232	0.2171	0.4828	0.2769	0.3979	0.2107	0.3836	0.412	0.2077	0.2597	0.4506	0.221	0.3653	0.2175	0.4321	0.2171	0.5282	0.3988	0.3181	6.3203	1.459	2.1058	14	136	-0.449416995637347	0	1
"137"	14	56	2	4	5.96	0	3	1	1	0.835	3.5276	6.3846	11.1027	8.085	4.6478	14.1425	5.8248	-2.433	4.4394	1.8737	7.2897	-3.0571	11.3914	0.7227	8.4744	4.2313	6.9461	5.908	3.4379	16.6896	0.2167	0.2873	0.3962	0.4509	0.3993	0.2298	0.4775	0.3262	0.2751	0.2406	0.3227	0.3957	0.4639	0.2118	0.2507	0.4581	0.2881	0.3928	0.2426	6.326	1.4675	2.3192	14	137	-0.180323554131282	1	0
"138"	14	64	2	-4	-5.96	0	3	-1	1	0.758	-5.2806	-16.6302	-10.8235	-4.7227	6.8403	-5.7455	-2.4033	-5.2105	-6.2382	-5.6535	-6.3842	-1.9345	-6.0835	-3.5496	-3.5576	-12.1175	-0.4073	-10.804	-9.4162	-10.8992	0.2122	0.4845	0.2436	0.4733	0.2945	0.2476	0.2971	0.3552	0.3877	0.4218	0.3738	0.2027	0.3881	0.2245	0.3899	0.4215	0.2507	0.457	0.2067	6.3325	1.467	2.2417	14	138	-0.277071893339765	0	1
"139"	14	6	2	2	2.98	1	3	1	1	0.965	1.9249	4.236	10.0572	7.3721	0.1187	-5.4322	11.6734	-0.1294	-2.9714	-0.0628	-1.3052	-2.7697	9.489	3.2484	3.8433	6.7296	-2.9699	3.6066	11.1988	2.6952	0.333	0.333	0.333	0.333	0.333	0.333	0.333	0.333	0.333	0.333	0.333	0.333	0.333	0.333	0.333	0.333	0.333	0.333	0.333	6.327	1.4986	2.4656	14	139	-0.0356271776431512	1	0
"140"	14	69	2	2	2.98	0	3	1	1	0.804	7.53	7.995	3.9471	-6.3886	1.48	10.3885	-1.4583	7.6414	5.1946	-0.4544	8.3861	4.4203	-2.651	4.6848	4.9132	-7.7547	5.0898	5.9817	1.9582	-0.8655	0.3284	0.2688	0.2217	0.29	0.3595	0.4948	0.2522	0.2065	0.3475	0.2432	0.2855	0.4689	0.4227	0.3866	0.4365	0.2335	0.5117	0.2635	0.2958	6.3174	1.6065	2.4215	14	140	-0.218156009803171	1	0
"141"	14	27	3	2	2.98	0	4	1	1	1.216	-0.0237	3.0335	1.4733	7.1808	-1.9387	-0.8221	1.0006	11.1419	-2.2972	-5.3643	8.1946	12.8007	-1.3213	2.8693	8.446	0.1048	6.8677	-0.6108	2.7288	6.6951	0.2827	0.4634	0.389	0.3275	0.4798	0.3336	0.2486	0.3972	0.2896	0.3538	0.2126	0.269	0.2028	0.4018	0.5181	0.2512	0.3562	0.2666	0.2933	6.3366	1.4768	2.6999	14	141	0.195566783543975	1	0
"142"	14	11	3	0	0	0	3	1	0	0.867	4.6345	6.9133	-2.7869	-9.1801	-2.9707	0.3514	0.1436	-0.5209	-12.1236	3.095	3.7268	6.0218	-1.9048	-3.8697	7.0165	-0.8332	5.2348	-0.1142	-2.6652	-0.9173	0.4097	0.4378	0.2901	0.2065	0.2926	0.3435	0.2629	0.2014	0.3736	0.2256	0.3565	0.5048	0.3632	0.2369	0.2075	0.3073	0.4598	0.3777	0.4675	6.3251	1.6886	2.5676	14	142	-0.142716302201595	1	0
"143"	14	1	3	-4	-5.96	1	4	-1	1	1.168	-4.8355	-7.611	-8.3286	-12.4432	-5.0841	-3.0827	2.8976	-6.3676	-4.3125	-12.8306	-2.1051	4.5936	-6.1239	-9.0439	-10.907	-11.0356	-13.6794	-2.3375	-1.19	-4.6416	0.333	0.333	0.333	0.333	0.333	0.333	0.333	0.333	0.333	0.333	0.333	0.333	0.333	0.333	0.333	0.333	0.333	0.333	0.333	6.327	1.5947	2.7689	14	143	0.155292884406035	0	1
"144"	14	17	3	-1	-1.49	1	4	-1	1	1.013	-2.6324	-4.8729	-8.4604	-5.6378	-4.5447	1.5412	-3.3262	-6.757	-5.8572	-3.0225	2.9901	1.0735	-2.8976	2.7109	-5.2828	-1.0654	5.1238	4.7872	-4.8297	12.0191	0.333	0.333	0.333	0.333	0.333	0.333	0.333	0.333	0.333	0.333	0.333	0.333	0.333	0.333	0.333	0.333	0.333	0.333	0.333	6.327	1.6732	2.6803	14	144	0.0129162252665462	0	1
"145"	14	23	3	-2	-2.98	0	5	-1	1	1.27	-1.0856	-2.9842	-0.5537	-9.8701	-3.6877	-8.1483	-2.2066	-0.7943	-7.3583	3.0725	-6.0883	-7.0343	-10.2529	-3.6911	2.7936	6.176	-1.2888	-0.8306	5.7322	-10.9776	0.2702	0.2358	0.3335	0.2641	0.5311	0.2225	0.3212	0.3545	0.4428	0.2232	0.3659	0.2911	0.4357	0.3373	0.29	0.2115	0.2598	0.434	0.5063	6.3305	1.4838	2.7537	14	145	0.2390169004705	0	1
"146"	14	19	3	1	1.49	1	6	1	1	1.795	0.6316	4.875	-4.5862	-0.8786	9.6491	12.6695	-3.5726	0.5862	-2.2492	-4.042	-0.2884	3.0172	1.806	-6.871	-1.3144	9.1135	2.4616	5.8246	3.5048	0.3665	0.333	0.333	0.333	0.333	0.333	0.333	0.333	0.333	0.333	0.333	0.333	0.333	0.333	0.333	0.333	0.333	0.333	0.333	0.333	6.327	1.5436	3.3625	14	146	0.585005021940242	1	0
"147"	14	60	3	0	0	1	3	1	1	0.803	-0.1548	3.024	-4.5769	8.2911	-1.8613	0.5595	-0.321	1.6937	1.2223	-8.9216	-2.6501	-1.6747	4.6474	2.28	2.8974	2.0005	6.4864	1.4717	-1.7932	-13.2507	0.333	0.333	0.333	0.333	0.333	0.333	0.333	0.333	0.333	0.333	0.333	0.333	0.333	0.333	0.333	0.333	0.333	0.333	0.333	6.327	1.4672	2.2866	14	147	-0.219400565035375	1	0
"148"	14	40	3	1	1.49	0	7	1	1	2.163	1.5445	-0.454	-4.5796	-3.8651	-3.76	4.1669	-2.7412	-1.7696	3.5564	7.0527	-1.2818	6.429	-3.9722	-3.1468	5.415	12.5555	4.6473	-1.3471	1.1718	9.0783	0.2228	0.5069	0.2502	0.3835	0.2028	0.3047	0.4774	0.3835	0.5272	0.2563	0.4921	0.2079	0.3743	0.3311	0.2803	0.2476	0.2113	0.4183	0.2532	6.3312	1.7152	3.8967	14	148	0.771496146970922	1	0
"149"	14	34	3	2	2.98	1	4	1	1	1.044	5.0953	1.7957	1.7204	-3.0186	4.293	8.4751	4.522	-0.1054	-2.0133	1.9025	2.8343	-4.465	9.6801	7.0855	0.4429	13.7437	5.7455	6.0635	3.6701	-7.4162	0.333	0.333	0.333	0.333	0.333	0.333	0.333	0.333	0.333	0.333	0.333	0.333	0.333	0.333	0.333	0.333	0.333	0.333	0.333	6.327	1.5016	2.5611	14	149	0.043059489460447	1	0
"150"	14	21	3	4	5.96	1	4	1	1	1.027	5.4107	0.3309	14.3472	0.6316	6.6314	5.1526	7.6279	8.5934	-2.5588	3.385	10.8955	13.2904	11.2446	5.5408	13.9825	6.8397	2.0874	1.2422	-0.442	5.4732	0.333	0.333	0.333	0.333	0.333	0.333	0.333	0.333	0.333	0.333	0.333	0.333	0.333	0.333	0.333	0.333	0.333	0.333	0.333	6.327	1.5033	2.5442	14	150	0.0266419309464211	1	0
"151"	14	53	3	0	0	0	5	1	0	1.516	-0.2067	4.0742	1.6591	6.8878	-4.0953	-6.5799	-1.7089	-0.5275	9.5638	-4.225	2.3638	0.9361	-3.3407	-4.6894	7.8911	-10.0083	2.2727	2.4602	0.4676	-3.8262	0.4127	0.3283	0.4639	0.2615	0.4222	0.2811	0.3432	0.2501	0.2093	0.323	0.2441	0.311	0.5326	0.4665	0.2996	0.3924	0.2175	0.3431	0.2175	6.3196	1.5695	3.1001	14	151	0.41607528722018	1	0
"152"	14	57	3	-4	-5.96	1	4	-1	1	1.037	-9.4217	2.8229	-4.3383	-8.19	-3.4633	-5.7678	-1.9638	-13.8648	-2.5575	-3.22	-10.2849	-4.5399	-7.7137	-12.3967	-3.8026	1.1666	-14.1749	-9.0792	0.7795	-9.7213	0.333	0.333	0.333	0.333	0.333	0.333	0.333	0.333	0.333	0.333	0.333	0.333	0.333	0.333	0.333	0.333	0.333	0.333	0.333	6.327	1.7188	2.7707	14	152	0.0363319292473902	0	1
"153"	14	10	3	-1	-1.49	0	6	-1	1	1.745	-4.6982	9.8464	-0.9538	-7.0932	2.7494	-4.2181	3.7313	-3.4298	-11.7758	-2.941	-9.6619	-0.8384	1.503	3.753	-1.3987	-0.1087	1.9275	-3.6037	0.191	-1.6797	0.3617	0.2743	0.3807	0.4204	0.2354	0.3683	0.2722	0.2384	0.4908	0.2346	0.36	0.2892	0.2308	0.5125	0.2879	0.3248	0.3719	0.4492	0.2231	6.326	1.6538	3.4122	14	153	0.556754555654391	0	1
"154"	14	8	3	-4	-5.96	0	6	-1	1	2.002	-2.8783	1.5297	-5.3103	-1.1948	1.316	-6.9285	-8.9236	-4.7246	-13.0313	-3.8133	-0.8677	-1.794	-11.6753	-11.4158	-9.3969	-10.9756	-15.2895	-2.0907	-2.8113	-10.6982	0.4932	0.2467	0.3553	0.3087	0.2646	0.4208	0.295	0.2288	0.3912	0.2294	0.3097	0.4714	0.2822	0.3091	0.2795	0.4353	0.208	0.4527	0.34	6.3218	1.584	3.5856	14	154	0.694146680893029	0	1
"155"	14	55	3	2	2.98	0	7	1	1	2.255	7.9193	-0.1732	-1.7005	15.2361	5.9237	1.4563	-4.8459	7.2017	-2.0349	2.5912	1.251	2.7248	0.8113	3.3392	5.3811	2.0084	11.6551	0.1347	5.7065	-4.8974	0.421	0.2305	0.366	0.2644	0.5268	0.2167	0.2832	0.4114	0.2071	0.2481	0.456	0.4247	0.2798	0.3545	0.3283	0.2137	0.3834	0.4621	0.2415	6.3191	1.5445	3.8054	14	155	0.813149972954642	1	0
"156"	14	16	3	-2	-2.98	1	4	-1	1	1.194	-5.6305	0.0063	-9.1794	-8.5494	-0.2844	-0.9603	-2.7446	4.0281	-0.9537	-2.7936	-3.3345	-7.0238	-10.1269	-7.2012	-8.4533	0.6169	-7.581	2.2698	8.6746	-0.691	0.333	0.333	0.333	0.333	0.333	0.333	0.333	0.333	0.333	0.333	0.333	0.333	0.333	0.333	0.333	0.333	0.333	0.333	0.333	6.327	1.4359	2.6274	14	156	0.17730901497041	0	1
"157"	14	18	3	0	0	1	5	1	1	1.506	3.5161	-6.4205	8.7266	-4.0833	-0.7062	8.7561	2.0126	3.9988	-4.9681	-5.7481	-1.4176	7.4526	-0.5855	-3.6618	-1.063	-0.1928	-5.8935	-6.0072	3.9012	3.3236	0.333	0.333	0.333	0.333	0.333	0.333	0.333	0.333	0.333	0.333	0.333	0.333	0.333	0.333	0.333	0.333	0.333	0.333	0.333	6.327	1.7318	3.2405	14	157	0.409457129377702	1	0
"158"	14	48	3	2	2.98	1	8	1	1	2.437	2.4934	-7.627	3.944	10.6258	0.5368	2.7601	2.3505	-5.4239	-0.1921	2.1063	-0.2341	2.2818	-0.4693	9.6471	10.1515	0.4431	6.8673	1.1702	7.4946	10.6682	0.333	0.333	0.333	0.333	0.333	0.333	0.333	0.333	0.333	0.333	0.333	0.333	0.333	0.333	0.333	0.333	0.333	0.333	0.333	6.327	1.5403	3.9882	14	158	0.890767774643069	1	0
"159"	14	31	3	-1	-1.49	1	3	1	0	0.869	1.3194	5.1595	5.8216	-6.4991	-8.1118	-1.0583	5.9012	-5.436	-1.1134	-9.4556	-3.3476	-4.2218	-3.7683	-4.0518	-9.994	2.721	0.2219	2.503	4.5512	-1.4051	0.333	0.333	0.333	0.333	0.333	0.333	0.333	0.333	0.333	0.333	0.333	0.333	0.333	0.333	0.333	0.333	0.333	0.333	0.333	6.327	1.4957	2.3698	14	159	-0.140412153716745	1	0
"160"	14	45	3	-1	-1.49	1	3	1	0	0.831	1.8339	11.2988	-0.7365	1.9686	-8.7257	-2.0203	1.733	-1.0936	-5.322	-2.9923	-10.0919	-2.0589	2.5837	-6.1836	-2.1648	3.3816	2.3863	-7.776	-5.3173	-1.5487	0.333	0.333	0.333	0.333	0.333	0.333	0.333	0.333	0.333	0.333	0.333	0.333	0.333	0.333	0.333	0.333	0.333	0.333	0.333	6.327	1.6793	2.5149	14	160	-0.185125484126689	1	0
"161"	14	51	3	-2	-2.98	0	8	1	0	2.478	-7.3529	6.4993	-2.972	0.5552	-0.4012	-4.5815	-3.0201	-7.1543	2.2687	-3.4373	-6.3831	5.5492	-4.5869	-3.6005	-2.5656	-0.5195	-8.7184	-14.5347	-5.6422	2.8875	0.209	0.4485	0.3876	0.4716	0.2268	0.288	0.2212	0.3036	0.3921	0.1999	0.3082	0.3918	0.513	0.215	0.3062	0.4261	0.2697	0.5019	0.2371	6.3171	1.4195	3.9124	14	161	0.907451783206951	1	0
"162"	14	54	3	1	1.49	0	4	1	1	1.17	1.5503	9.4521	7.8314	-1.5998	-4.7644	-0.0578	-0.6349	-0.2396	-1.7771	2.6862	5.3072	-3.1711	11.8833	-4.479	-3.2615	2.2073	9.7029	0.0139	-4.7613	3.1147	0.4643	0.2914	0.2332	0.2792	0.3676	0.2129	0.392	0.2219	0.2592	0.3649	0.4186	0.3005	0.275	0.4822	0.2769	0.366	0.4506	0.4019	0.2638	6.3221	1.6302	2.8206	14	162	0.157003748809665	1	0
"163"	14	61	3	1	1.49	1	6	-1	0	1.81	3.0971	-1.8959	2.3312	-5.3271	-3.7663	1.2362	7.4422	3.6661	-3.042	4.4815	10.7262	-10.3715	-1.7467	5.0099	6.2721	4.8592	0.6062	-1.443	2.6957	6.1239	0.333	0.333	0.333	0.333	0.333	0.333	0.333	0.333	0.333	0.333	0.333	0.333	0.333	0.333	0.333	0.333	0.333	0.333	0.333	6.327	1.4594	3.277	14	163	0.593326845277734	0	1
"164"	14	35	3	4	5.96	1	3	1	1	0.87	6.4833	9.1499	8.3545	2.2079	9.8003	-5.9042	10.2993	9.3887	5.1619	12.176	10.9389	-0.6587	9.6336	7.5465	5.0197	11.3507	6.4536	1.6006	-0.2203	-1.3804	0.333	0.333	0.333	0.333	0.333	0.333	0.333	0.333	0.333	0.333	0.333	0.333	0.333	0.333	0.333	0.333	0.333	0.333	0.333	6.327	1.4762	2.3537	14	164	-0.139262067333508	1	0
"165"	14	6	3	2	2.98	1	5	-1	0	1.607	0.1987	-1.3582	9.1295	-1.7202	-6.1334	-2.3573	8.0552	11.7567	-2.7866	3.4224	9.6917	7.4491	-2.4422	2.7429	2.2795	7.6383	3.9814	6.3495	5.3783	0.1595	0.333	0.333	0.333	0.333	0.333	0.333	0.333	0.333	0.333	0.333	0.333	0.333	0.333	0.333	0.333	0.333	0.333	0.333	0.333	6.327	1.5441	3.1577	14	165	0.474369086755376	0	1
"166"	14	2	3	-2	-2.98	1	4	-1	1	1.006	-5.0757	-6.9284	-5.0331	-8.0051	-16.0614	1.6814	0.9129	-3.1911	4.2326	4.0701	-3.7528	-4.202	-3.3455	3.0362	-4.3334	0.3301	-1.8462	-1.398	-0.3572	-10.4579	0.333	0.333	0.333	0.333	0.333	0.333	0.333	0.333	0.333	0.333	0.333	0.333	0.333	0.333	0.333	0.333	0.333	0.333	0.333	6.327	1.7113	2.7238	14	166	0.00598207167754747	0	1
"167"	14	56	3	4	5.96	0	4	1	1	1.27	4.7079	11.9257	1.6114	-1.5925	11.7389	4.5811	11.2787	0.4176	10.2675	14.489	5.394	8.1109	4.1295	5.9866	0.5685	7.9571	5.0861	-4.5331	7.8804	9.3667	0.4019	0.3362	0.501	0.4168	0.2597	0.2015	0.283	0.2333	0.3855	0.2058	0.4015	0.3158	0.2624	0.4776	0.3634	0.2102	0.3064	0.4054	0.3502	6.3177	1.4145	2.6873	14	167	0.2390169004705	1	0
"168"	14	47	3	1	1.49	1	10	-1	0	3.149	-2.7744	3.8231	-1.5569	0.3534	-3.2257	5.3946	6.7249	-3.0116	9.6859	4.0653	3.6616	2.5678	5.4741	-0.3907	-0.5511	7.0343	7.4128	-0.036	-11.235	-3.0371	0.333	0.333	0.333	0.333	0.333	0.333	0.333	0.333	0.333	0.333	0.333	0.333	0.333	0.333	0.333	0.333	0.333	0.333	0.333	6.327	1.6485	4.8001	14	168	1.14708494211889	0	1
"169"	14	66	3	-1	-1.49	0	3	1	0	0.958	3.2407	4.6074	-5.2413	-2.8759	3.62	6.5236	-7.7292	-10.2349	-0.5447	-5.1312	-6.3632	-3.8963	-2.196	0.2728	0.5595	7.7526	0.7534	-7.5939	-6.2099	-0.599	0.3922	0.4397	0.2264	0.28	0.5262	0.3218	0.2052	0.4152	0.2604	0.4067	0.2461	0.2156	0.3317	0.3798	0.3076	0.3805	0.2943	0.3975	0.301	6.328	1.5264	2.4921	14	169	-0.0429075010112765	1	0
"170"	14	33	3	1	1.49	1	3	1	1	0.995	0.6598	-0.7952	3.2439	13.3587	-2.4984	-6.5712	-4.4456	-0.4277	10.3109	2.9504	5.2345	-2.3791	-4.204	-0.636	3.738	4.0549	1.6521	3.7262	-4.1748	6.6633	0.333	0.333	0.333	0.333	0.333	0.333	0.333	0.333	0.333	0.333	0.333	0.333	0.333	0.333	0.333	0.333	0.333	0.333	0.333	6.327	1.703	2.696	14	170	-0.00501254182354429	1	0
"171"	14	64	3	-4	-5.96	0	4	-1	1	1.295	-9.179	2.5086	-14.1607	-6.7026	-7.1177	-9.5789	-4.7374	-3.3782	-9.3986	3.3147	-3.7131	-12.865	0.9741	-9.2806	-6.7688	-10.4462	-8.0978	2.1856	-3.2783	-8.8479	0.3102	0.2026	0.5111	0.45	0.2124	0.3453	0.2727	0.2465	0.4834	0.2603	0.3095	0.504	0.315	0.2241	0.4449	0.2043	0.3759	0.2054	0.4493	6.3268	1.6682	2.9626	14	171	0.258510695151501	0	1
"172"	14	12	3	1	1.49	0	3	1	1	0.951	1.2381	5.4424	2.592	4.6012	9.4108	-0.6589	1.9468	0.758	-1.28	0.8667	0.6884	0.7279	5.3856	-16.5635	5.2875	-1.0493	2.1644	6.0373	0.7858	3.0656	0.322	0.5156	0.2811	0.245	0.3859	0.3409	0.2131	0.2915	0.3919	0.3573	0.4489	0.239	0.2803	0.3238	0.4644	0.2455	0.3017	0.4253	0.2564	6.3298	1.6401	2.6021	14	172	-0.0502412164367468	1	0
"173"	14	50	3	-4	-5.96	0	3	-1	1	0.913	-1.4634	-8.7772	-2.0176	-12.8803	-10.6986	-7.682	-12.0281	-4.6855	-3.5418	-4.083	-11.2554	-6.6734	-14.8328	0.7905	-8.4903	-5.5999	-1.3757	-5.1082	0.8843	2.152	0.4411	0.36	0.2595	0.2167	0.3615	0.2231	0.4755	0.391	0.2038	0.3258	0.2032	0.464	0.3148	0.2318	0.4623	0.4107	0.226	0.3956	0.359	6.3256	1.4402	2.3641	14	173	-0.0910193983871685	0	1
"174"	14	38	3	-1	-1.49	0	3	-1	1	0.873	-4.2642	-3.6111	-1.546	-0.6341	-2.2314	0.8198	-0.513	1.0636	7.55	-4.6703	-2.7929	5.5924	-5.4787	-4.7192	-12.2143	-4.8719	-5.2377	10.175	-2.5945	1.2796	0.2088	0.3216	0.4952	0.5264	0.4682	0.3181	0.2461	0.301	0.2413	0.4439	0.2326	0.4831	0.2403	0.4175	0.2554	0.3256	0.2393	0.325	0.2468	6.3362	1.4365	2.3072	14	174	-0.135819723142535	0	1
"175"	14	52	3	-1	-1.49	0	5	1	0	1.623	0.6251	-6.3592	-6.1853	5.225	10.6287	-7.7558	-1.6312	-1.864	-2.1582	0.502	-1.1477	3.2654	0.8553	-5.8196	-6.3655	-1.8477	6.062	-1.6952	-5.5413	-8.9307	0.4288	0.3886	0.3362	0.2291	0.2846	0.4476	0.2492	0.5023	0.3856	0.2955	0.2078	0.3936	0.4818	0.4469	0.2266	0.264	0.214	0.2927	0.2614	6.3364	1.7129	3.3407	14	175	0.484276288532454	1	0
"176"	14	32	3	0	0	1	5	1	1	1.434	4.0701	-0.4936	-0.9678	2.3902	-0.1481	3.9627	-11.636	3.7938	0.3346	-1.1554	5.0358	-4.9331	5.4469	-2.8313	6.3849	1.1599	0.9604	4.3606	-9.5722	-6.3451	0.333	0.333	0.333	0.333	0.333	0.333	0.333	0.333	0.333	0.333	0.333	0.333	0.333	0.333	0.333	0.333	0.333	0.333	0.333	6.327	1.4077	2.8515	14	176	0.360467742177429	1	0
"177"	14	5	3	1	1.49	1	4	1	1	1.142	5.2192	5.0144	3.9797	1.9727	3.4239	1.6759	2.3575	10.6904	-2.4639	-2.871	0.3543	-2.5708	8.0211	10.8893	-7.0963	-3.6119	1.8051	1.9812	-2.0774	-5.1432	0.333	0.333	0.333	0.333	0.333	0.333	0.333	0.333	0.333	0.333	0.333	0.333	0.333	0.333	0.333	0.333	0.333	0.333	0.333	6.327	1.5789	2.7426	14	177	0.132781111233818	1	0
"178"	14	24	3	-1	-1.49	0	3	-1	1	1.104	-5.6944	-4.4164	-3.041	6.6578	0.9095	-10.7284	2.0958	4.8448	-12.7113	-0.2368	4.589	-3.27	-4.059	-1.9334	-1.1716	-2.1805	-4.0342	1.7878	3.8913	-0.1021	0.2792	0.4068	0.4902	0.257	0.2996	0.4829	0.2947	0.4988	0.4698	0.2627	0.3608	0.2851	0.2145	0.3842	0.3146	0.2354	0.3074	0.2138	0.2664	6.324	1.7048	2.8211	14	178	0.0989399478549036	0	1
"179"	14	28	3	4	5.96	0	3	1	1	1.056	3.4413	12.4111	-0.8946	3.3747	6.3166	-0.8802	15.6264	7.7265	-1.9042	4.8585	6.9974	10.4161	7.0892	9.7609	2.0461	6.8155	-0.8542	6.9814	7.293	13.5848	0.362	0.292	0.4552	0.3419	0.2644	0.2046	0.2945	0.4189	0.2216	0.3962	0.4518	0.4945	0.4008	0.2057	0.2885	0.2376	0.2872	0.2237	0.4858	6.3271	1.706	2.7733	14	179	0.0544881852840698	1	0
"180"	14	46	3	0	0	1	4	1	0	1.285	0.078	-0.4994	0.7377	0.2343	-1.8325	-0.1358	4.1061	1.4633	-3.6788	-8.3023	0.8175	3.4931	0.0053	6.7941	-1.0158	-10.2032	5.837	-9.16	9.0457	1.9807	0.333	0.333	0.333	0.333	0.333	0.333	0.333	0.333	0.333	0.333	0.333	0.333	0.333	0.333	0.333	0.333	0.333	0.333	0.333	6.327	1.6835	2.9861	14	180	0.250758718347183	1	0
"181"	14	7	3	4	5.96	1	4	1	1	1.098	6.3681	2.3773	3.4338	6.4567	7.0364	1.3264	4.7589	7.9273	12.3356	2.4208	12.6136	-6.0653	1.1411	3.3048	1.8817	7.6782	15.7555	9.2831	7.8471	9.9708	0.333	0.333	0.333	0.333	0.333	0.333	0.333	0.333	0.333	0.333	0.333	0.333	0.333	0.333	0.333	0.333	0.333	0.333	0.333	6.327	1.6434	2.7493	14	181	0.093490343087339	1	0
"182"	14	58	3	-2	-2.98	1	3	-1	1	0.722	-0.0843	1.0416	-2.8983	-4.2119	1.9652	-3.6617	-8.692	-7.1128	-3.0893	-0.5155	5.0849	-4.5131	-12.0891	8.3229	-6.027	-9.6551	-5.6151	-4.6459	2.7016	-4.5517	0.333	0.333	0.333	0.333	0.333	0.333	0.333	0.333	0.333	0.333	0.333	0.333	0.333	0.333	0.333	0.333	0.333	0.333	0.333	6.327	1.483	2.2223	14	182	-0.325730140089311	0	1
"183"	14	68	3	1	1.49	0	7	1	1	2.069	-0.329	4.0278	5.5288	-3.4443	1.9488	10.552	6.2542	3.215	-2.6557	-5.1948	1.9185	0.6053	-2.5606	-5.0595	-8.3586	6.6444	6.6082	1.6007	0.2419	6.9222	0.2076	0.4552	0.2581	0.3378	0.2757	0.4174	0.2533	0.3138	0.2119	0.3803	0.4304	0.4719	0.2239	0.4135	0.3002	0.2164	0.5132	0.3645	0.2826	6.3277	1.4245	3.5033	14	183	0.727065398763406	1	0
"184"	14	30	3	-2	-2.98	1	5	1	0	1.513	1.541	2.8785	-8.8337	3.0683	-7.5374	-5.6879	-1.8737	-0.8795	-3.2407	6.1667	-8.7575	-1.126	4.8136	-3.2037	0.031	-5.3619	-6.4299	-8.5364	-11.4303	-3.7231	0.333	0.333	0.333	0.333	0.333	0.333	0.333	0.333	0.333	0.333	0.333	0.333	0.333	0.333	0.333	0.333	0.333	0.333	0.333	6.327	1.5849	3.114	14	184	0.414094434806219	1	0
"185"	14	37	3	-2	-2.98	0	4	-1	1	1.127	-7.3807	-0.8719	-7.7683	2.806	-4.0068	-1.1137	-7.6769	0.4093	-6.6267	-12.0926	1.2591	6.2393	-2.2419	1.0099	-3.0564	0.3939	-0.9995	-13.2789	-0.8485	-3.6067	0.2749	0.2065	0.4658	0.2586	0.367	0.2627	0.4207	0.2457	0.3875	0.2531	0.3784	0.3161	0.2771	0.4407	0.4711	0.217	0.4151	0.26	0.414	6.3319	1.4161	2.5449	14	185	0.119559235057639	0	1
"186"	14	22	3	-4	-5.96	0	4	-1	1	1.086	-8.914	0.0863	-9.3487	-1.8646	2.5706	-11.9603	-15.8253	-0.3162	-6.3926	-15.3049	0.0264	-9.556	-7.4876	-5.421	-2.0188	-9.108	-3.9033	-4.5997	-5.936	-4.9296	0.2233	0.4484	0.3258	0.1998	0.3137	0.4648	0.308	0.25	0.3822	0.3242	0.2304	0.2598	0.4628	0.3303	0.3635	0.4869	0.3051	0.2049	0.4387	6.3226	1.421	2.5201	14	186	0.0825012215117438	0	1
"187"	14	63	3	4	5.96	1	6	1	1	1.679	2.8465	-3.9412	6.3501	12.456	10.2533	12.917	7.778	2.4428	12.0828	9.4465	12.5981	0.0481	0.6817	6.7243	4.4097	2.8084	2.3347	11.4822	2.4728	4.9399	0.333	0.333	0.333	0.333	0.333	0.333	0.333	0.333	0.333	0.333	0.333	0.333	0.333	0.333	0.333	0.333	0.333	0.333	0.333	6.327	1.4464	3.1296	14	187	0.518198378095404	1	0
"188"	14	4	3	0	0	1	8	1	1	2.519	-2.8067	-4.5099	1.1666	3.6485	-1.979	-0.7054	-4.3638	-8.9281	5.0151	2.3659	5.0613	9.2859	7.869	-3.3437	-1.1093	5.5453	0.9237	-4.3594	-7.8214	-2.0705	0.333	0.333	0.333	0.333	0.333	0.333	0.333	0.333	0.333	0.333	0.333	0.333	0.333	0.333	0.333	0.333	0.333	0.333	0.333	6.327	1.6568	4.1866	14	188	0.923861997370473	1	0
"189"	14	67	3	0	0	0	6	1	0	1.761	0.2683	-2.8613	5.72	-2.1723	-4.1302	13.4665	-2.2657	-1.465	-3.1801	-8.1111	1.5477	4.2829	-2.3366	6.6946	3.5236	2.1496	-5.6233	0.5736	-6.1481	-0.7276	0.3651	0.2992	0.266	0.3314	0.2006	0.3591	0.2313	0.376	0.3005	0.2664	0.3777	0.2585	0.5087	0.3215	0.2387	0.4549	0.3237	0.349	0.4942	6.3225	1.5222	3.2779	14	189	0.565881829514069	1	0
"190"	14	41	3	2	2.98	0	5	1	1	1.565	1.9766	-3.2957	9.6218	-0.4527	7.5907	14.4096	5.6619	1.3885	0.5649	8.678	-3.1605	6.9123	0.4629	5.2303	3.2454	0.5474	0.4824	6.7565	-1.9985	-4.0226	0.3317	0.2004	0.5242	0.2999	0.2314	0.2867	0.5069	0.2698	0.2177	0.4978	0.2206	0.2515	0.3762	0.2386	0.3579	0.5285	0.252	0.5259	0.2059	6.3236	1.6908	3.2495	14	190	0.447885823992117	1	0
"191"	14	69	3	2	2.98	0	6	1	1	1.769	1.7674	10.0318	-0.4309	8.6717	5.7435	-5.6155	1.5934	3.7671	0.8937	11.1569	0.3986	0.7222	5.1449	-2.6553	11.1867	-2.208	0.746	-1.5577	2.6848	9.4659	0.2165	0.269	0.4851	0.3205	0.4508	0.383	0.2462	0.4207	0.271	0.3307	0.42	0.3473	0.315	0.4159	0.223	0.2831	0.2042	0.4944	0.2308	6.3274	1.5749	3.3531	14	191	0.570414415177648	1	0
"192"	14	62	3	2	2.98	1	3	1	1	0.94	5.431	0.1573	6.9021	4.5278	11.2487	4.8372	-3.9264	-5.6456	4.7704	8.9222	-4.725	6.8037	1.8678	1.7854	-2.6598	1.5864	7.0422	10.6759	-0.4896	1.9741	0.333	0.333	0.333	0.333	0.333	0.333	0.333	0.333	0.333	0.333	0.333	0.333	0.333	0.333	0.333	0.333	0.333	0.333	0.333	6.327	1.4157	2.3743	14	192	-0.0618754037180875	1	0
"193"	14	70	3	4	5.96	0	4	1	1	1.284	2.7931	2.196	15.4413	0.6193	3.0763	11.1729	3.8228	4.869	6.2166	15.8788	9.2411	0.8393	11.1903	-0.9033	8.206	7.0168	6.9589	-2.4714	7.6261	4.9155	0.3983	0.4831	0.2998	0.4079	0.2719	0.4604	0.2563	0.335	0.4214	0.2346	0.3428	0.3851	0.4557	0.3293	0.2133	0.2566	0.2928	0.226	0.2531	6.3233	1.6845	2.9848	14	193	0.249980205267769	1	0
"194"	14	39	3	0	0	0	4	-1	1	1.17	-3.4394	1.6555	-7.8776	-8.4478	-5.0121	0.0606	1.5295	4.3582	-0.6081	4.9852	-1.7933	12.3945	0.7982	1.9325	1.4641	2.4194	1.2115	-8.416	0.9783	1.5744	0.3273	0.252	0.2022	0.4627	0.2937	0.3384	0.373	0.2454	0.5308	0.3288	0.283	0.2416	0.369	0.5228	0.2003	0.4306	0.2062	0.4314	0.2971	6.3365	1.6399	2.8207	14	194	0.157003748809665	0	1
"195"	14	20	3	2	2.98	1	4	1	1	1.021	6.4717	-3.3931	6.1814	0.2789	2.8884	5.8519	1.05	5.4829	9.696	3.0747	-0.9725	-4.211	0.0187	-1.17	-0.886	7.8537	0.6752	-1.2749	15.341	8.1877	0.333	0.333	0.333	0.333	0.333	0.333	0.333	0.333	0.333	0.333	0.333	0.333	0.333	0.333	0.333	0.333	0.333	0.333	0.333	6.327	1.4973	2.5382	14	195	0.0207825391825284	1	0
"196"	14	65	3	-2	-2.98	0	4	-1	1	0.974	-4.6285	-8.9739	0.4736	-2.5763	-5.3324	-4.2783	5.1927	-3.9877	-1.0433	-4.2106	-5.5813	-6.2169	-8.8815	7.6874	3.0932	-7.2285	-7.5637	4.4354	0.2659	-8.7556	0.2658	0.3115	0.3475	0.2479	0.3301	0.3968	0.2472	0.3435	0.5194	0.2791	0.2469	0.4197	0.2113	0.4934	0.2831	0.2568	0.3997	0.2039	0.5135	6.3174	1.507	2.4919	14	196	-0.026343975339602	0	1
"197"	14	3	3	-1	-1.49	1	3	-1	1	0.881	-2.9483	-7.3195	0.6765	1.7535	-2.6648	7.6689	-0.9881	-9.9052	7.5752	-5.8626	-3.9838	1.5547	-6.4297	-3.9523	3.529	3.2988	-7.194	-5.8717	3.4818	-1.3692	0.333	0.333	0.333	0.333	0.333	0.333	0.333	0.333	0.333	0.333	0.333	0.333	0.333	0.333	0.333	0.333	0.333	0.333	0.333	6.327	1.5415	2.4318	14	197	-0.126697653045958	0	1
"198"	14	13	3	2	2.98	0	3	1	1	0.839	5.5479	-5.0483	8.3052	-2.6349	6.6858	8.8835	7.444	-6.6797	-1.4411	7.1339	-1.2875	4.5656	-2.5074	4.9951	2.3435	0.2458	8.8752	3.0973	1.1904	9.5256	0.2162	0.3093	0.5255	0.2075	0.3979	0.3623	0.228	0.3761	0.206	0.3629	0.2901	0.3752	0.4424	0.4953	0.3008	0.2702	0.2258	0.3345	0.3966	6.3227	1.5124	2.3562	14	198	-0.175544572514931	1	0
"199"	14	42	3	4	5.96	0	3	1	1	0.639	8.8069	11.4133	7.1956	3.1697	0.9955	8.6254	1.8738	-5.0288	9.5077	10.3756	10.9154	-3.5677	9.2125	4.6817	5.0039	1.2589	9.2854	7.913	4.3323	13.2133	0.2664	0.213	0.3914	0.4857	0.2293	0.5018	0.4757	0.253	0.4354	0.2199	0.3151	0.213	0.2587	0.4751	0.2957	0.2283	0.3347	0.4494	0.2768	6.3185	1.584	2.2236	14	199	-0.447850824604602	1	0
"200"	14	25	3	0	0	0	7	1	0	1.939	4.3656	2.7985	-3.9764	4.7143	1.1359	6.7233	-0.1913	-6.1052	-4.2224	1.108	3.6893	-10.1834	2.0741	-1.4666	-7.8919	-0.0776	-2.5219	4.9673	-3.3039	8.5581	0.2894	0.3672	0.3993	0.2956	0.3233	0.2009	0.3194	0.2226	0.3858	0.2537	0.3513	0.4616	0.2846	0.323	0.2971	0.3742	0.2802	0.4148	0.4856	6.3298	1.5943	3.5395	14	200	0.662172376260515	1	0
"201"	14	9	3	-2	-2.98	0	5	-1	1	1.57	-1.3066	-13.7749	1.9257	-2.7537	-11.0725	-3.7187	1.2789	-8.7522	-1.6856	0.6703	-6.6113	-1.8758	-2.04	4.1374	-6.1948	-7.6524	0.4473	5.1309	-5.7932	0.8684	0.3626	0.5225	0.2231	0.4224	0.2698	0.2232	0.2983	0.2508	0.4956	0.2071	0.4769	0.224	0.3283	0.4656	0.2412	0.2891	0.3357	0.2147	0.4682	6.3191	1.4706	3.0542	14	201	0.451075619360217	0	1
"202"	14	15	3	-4	-5.96	1	4	-1	1	1.081	-4.7102	-3.1174	-2.8257	-10.0772	-8.7016	-6.453	-7.8138	-1.2704	-13.8645	-1.0509	2.7466	-10.4441	-6.1458	-14.0558	-2.0137	0.1363	-6.3009	0.1493	-8.2147	-13.5142	0.333	0.333	0.333	0.333	0.333	0.333	0.333	0.333	0.333	0.333	0.333	0.333	0.333	0.333	0.333	0.333	0.333	0.333	0.333	6.327	1.5941	2.6815	14	202	0.0778865386570712	0	1
"203"	14	49	3	4	5.96	1	5	1	1	1.409	10.2908	4.8862	1.0745	5.5528	7.123	4.8813	3.8175	3.334	-2.7435	8.0714	5.9349	2.6032	4.2789	7.1092	11.5061	15.4145	14.0392	-3.4857	11.1422	2.8317	0.333	0.333	0.333	0.333	0.333	0.333	0.333	0.333	0.333	0.333	0.333	0.333	0.333	0.333	0.333	0.333	0.333	0.333	0.333	6.327	1.6135	3.0267	14	203	0.342880232916543	1	0
"204"	14	26	3	1	1.49	0	4	1	1	1.368	-2.3012	2.6048	4.3112	4.5766	0.7025	8.2565	-7.7249	-1.6174	8.153	-0.1036	0.7414	-0.3977	6.4097	2.9105	0.2895	-5.2525	5.0903	7.8223	-8.9083	3.3534	0.259	0.4251	0.2894	0.399	0.3071	0.506	0.3447	0.4787	0.2849	0.253	0.4223	0.2029	0.3757	0.2168	0.2965	0.4259	0.2125	0.4017	0.229	6.3302	1.4624	2.8358	14	204	0.313349819200359	1	0
"205"	14	14	3	4	5.96	0	6	1	1	1.707	3.238	1.1206	11.8394	13.8904	5.1408	8.6252	-0.7116	6.8621	13.287	-6.172	10.4731	11.2917	1.752	3.5287	8.1619	5.6288	4.115	8.9338	5.7829	1.3536	0.4729	0.2148	0.2438	0.313	0.3442	0.2198	0.3335	0.2837	0.4859	0.3213	0.2915	0.2434	0.3252	0.5253	0.4317	0.4004	0.2642	0.3663	0.2461	6.327	1.4861	3.1911	14	205	0.534737443812304	1	0
"206"	14	43	3	-4	-5.96	1	5	-1	1	1.578	-8.5528	-2.7503	0.3237	-4.7682	-5.126	-2.2295	-15.8406	-11.663	-0.9082	0.8497	-9.6244	-3.4497	-5.5934	-2.1608	-12.2714	-2.8209	-7.9644	-2.7893	-7.7035	-15.0608	0.333	0.333	0.333	0.333	0.333	0.333	0.333	0.333	0.333	0.333	0.333	0.333	0.333	0.333	0.333	0.333	0.333	0.333	0.333	6.327	1.482	3.0791	14	206	0.456158222423683	0	1
"207"	14	29	3	-4	-5.96	1	6	-1	1	1.793	-5.1287	-13.3265	-8.6889	3.0301	-7.4265	-7.5188	-9.4464	2.6586	-5.9575	-9.4929	-6.6603	2.5967	-8.0252	1.8551	-7.7847	-0.4971	-10.6411	-9.4694	-9.3142	-10.077	0.333	0.333	0.333	0.333	0.333	0.333	0.333	0.333	0.333	0.333	0.333	0.333	0.333	0.333	0.333	0.333	0.333	0.333	0.333	6.327	1.5625	3.3767	14	207	0.583890194622996	0	1
"208"	14	59	3	-1	-1.49	1	3	1	0	0.973	0.1533	2.6155	2.2721	7.979	-1.0729	-4.7854	-2.2353	-2.1105	1.5219	-2.2784	-4.8937	-0.7041	3.4165	-2.2859	-0.6329	7.8765	-4.857	-6.7201	-10.8994	-10.8789	0.333	0.333	0.333	0.333	0.333	0.333	0.333	0.333	0.333	0.333	0.333	0.333	0.333	0.333	0.333	0.333	0.333	0.333	0.333	6.327	1.6481	2.6409	14	208	-0.027371196796132	1	0
"209"	14	36	3	-4	-5.96	0	5	-1	1	1.298	-8.7109	-6.2263	-0.7549	-4.1744	-7.66	-15.4005	1.5286	-5.0114	-1.6338	-8.7668	-7.7716	-3.8612	-7.9205	1.816	-0.7333	-4.4462	-13.5427	-11.0065	-2.1092	-12.9208	0.2651	0.3715	0.2367	0.3219	0.2951	0.5128	0.3234	0.2371	0.4764	0.4472	0.352	0.2266	0.3488	0.2871	0.3846	0.2608	0.3934	0.3268	0.2522	6.3194	1.5564	2.8656	14	209	0.260824618281898	0	1
"210"	14	44	3	-2	-2.98	1	6	1	0	1.959	-3.2498	-4.9676	-8.1425	-6.5734	-2.9372	2.8776	-4.7844	11.0722	-6.4018	-4.2374	-3.3742	-1.4284	3.1141	-3.0327	-6.4241	-11.3365	-4.5633	2.6933	-7.2247	-0.2735	0.333	0.333	0.333	0.333	0.333	0.333	0.333	0.333	0.333	0.333	0.333	0.333	0.333	0.333	0.333	0.333	0.333	0.333	0.333	6.327	1.4736	3.4427	14	210	0.672434138962404	1	0
"211"	14	55	4	2	2.98	0	5	1	1	1.43	7.3812	1.8279	-2.5194	7.5495	-1.327	2.6537	5.4311	1.826	1.51	13.4569	2.5702	13.8291	3.3269	-1.8495	-4.7545	-0.061	0.652	-0.3384	7.2653	1.1724	0.3699	0.3062	0.259	0.4088	0.3459	0.3171	0.3876	0.3147	0.2743	0.4613	0.3724	0.2458	0.3613	0.2755	0.2026	0.3695	0.2934	0.4956	0.2753	6.3361	1.4645	2.9143	14	211	0.357674444271816	1	0
"212"	14	47	4	1	1.49	1	4	1	1	1.127	1.2853	-1.2659	4.7218	8.3374	-6.8825	5.154	-4.1396	8.8955	3.156	-0.2497	-7.3833	4.2131	2.7202	9.7995	1.5022	1.0532	5.3519	-0.7966	-0.4607	-5.8255	0.333	0.333	0.333	0.333	0.333	0.333	0.333	0.333	0.333	0.333	0.333	0.333	0.333	0.333	0.333	0.333	0.333	0.333	0.333	6.327	1.6085	2.7441	14	212	0.119559235057639	1	0
"213"	14	60	4	0	0	1	6	-1	0	1.869	-4.4444	8.878	3.622	-7.4456	0.0045	-11.571	6.2855	2.0348	3.6852	-2.5205	-0.3743	-0.4885	5.1941	0.4255	-1.1303	-6.4931	1.2074	-2.9455	4.7045	-0.1841	0.333	0.333	0.333	0.333	0.333	0.333	0.333	0.333	0.333	0.333	0.333	0.333	0.333	0.333	0.333	0.333	0.333	0.333	0.333	6.327	1.69	3.57	14	213	0.625403528473426	0	1
"214"	14	69	4	2	2.98	0	8	1	1	2.462	3.22	0.8819	5.2559	6.3239	8.4027	-2.7115	-0.1503	11.5576	1.1755	10.127	0.3877	1.385	-1.4938	-0.9764	2.0574	-9.8093	7.4414	7.6888	3.6348	5.3322	0.4837	0.2675	0.3465	0.2628	0.2237	0.5056	0.2672	0.3503	0.3077	0.2628	0.3713	0.4508	0.4085	0.2866	0.2399	0.4265	0.3471	0.2234	0.2967	6.3284	1.6205	4.0957	14	214	0.900974027762262	1	0
"215"	14	38	4	-1	-1.49	0	8	-1	1	2.211	3.287	-8.3422	3.0748	-2.2131	-1.5464	-0.313	-5.4968	5.9355	-3.5772	-9.5184	5.8113	2.6266	3.704	-6.7097	3.5111	-8.1886	-5.9823	0.0658	-6.3464	-1.2397	0.1999	0.269	0.3995	0.2245	0.3335	0.4007	0.2144	0.454	0.3181	0.406	0.3535	0.4055	0.2147	0.2418	0.5125	0.2304	0.5314	0.2252	0.3867	6.3213	1.6564	3.8785	14	215	0.793444901875309	0	1
"216"	14	61	4	1	1.49	1	4	1	1	1.154	4.8286	1.9628	7.401	-8.3291	3.6054	5.4709	-2.436	9.7123	3.1942	-2.9439	-2.3228	0.9327	7.907	0.7526	-2.7835	-1.499	-1.1556	-6.012	1.3767	8.3239	0.333	0.333	0.333	0.333	0.333	0.333	0.333	0.333	0.333	0.333	0.333	0.333	0.333	0.333	0.333	0.333	0.333	0.333	0.333	6.327	1.6865	2.8547	14	216	0.143234168085908	1	0
"217"	14	56	4	4	5.96	0	4	1	1	1.16	1.2053	13.5437	6.4455	14.675	10.4014	6.7957	5.2088	5.1474	3.1576	4.2511	-2.8344	7.063	7.7553	8.049	1.9375	-1.4694	8.2429	1.5868	3.0303	16.3652	0.2876	0.4398	0.2606	0.3576	0.2322	0.4427	0.4678	0.3574	0.2985	0.4502	0.2048	0.3422	0.3983	0.3178	0.4401	0.2666	0.212	0.3471	0.2063	6.3295	1.6019	2.7607	14	217	0.148420005118273	1	0
"218"	14	4	4	0	0	1	4	1	0	1	-0.2597	4.0298	5.7488	-2.3055	8.6228	2.8785	3.6153	-5.1269	-9.9321	-3.4069	9.5412	4.6238	-2.1569	-2.0439	-5.1418	-5.6594	1.9159	-1.1982	-3.9805	-0.9611	0.333	0.333	0.333	0.333	0.333	0.333	0.333	0.333	0.333	0.333	0.333	0.333	0.333	0.333	0.333	0.333	0.333	0.333	0.333	6.327	1.5408	2.5508	14	218	0	1	0
"219"	14	13	4	2	2.98	0	6	1	1	1.938	2.1028	-3.0651	4.547	7.9275	1.1498	9.2801	6.7563	6.5207	-3.1166	-5.0824	-7.7131	6.9978	2.956	1.0933	8.928	0.3504	6.0418	2.5198	0.5659	9.6412	0.3217	0.4641	0.2845	0.5284	0.2141	0.267	0.215	0.3349	0.4255	0.2217	0.2999	0.5053	0.4084	0.2385	0.2054	0.4954	0.2093	0.4833	0.2094	6.3319	1.4676	3.405	14	219	0.661656513468574	1	0
"220"	14	52	4	-1	-1.49	0	7	-1	1	2.398	3.1925	4.6813	4.6666	-1.4169	-6.2856	-6.6902	1.1064	2.6316	-7.3957	-2.0603	3.0058	-10.415	3.7199	-2.4367	-9.8319	-4.6556	2.6363	1.7822	-6.9955	1.2729	0.254	0.3132	0.4865	0.5221	0.3149	0.3832	0.5305	0.3107	0.2821	0.2199	0.2699	0.3851	0.2248	0.428	0.2194	0.2679	0.3278	0.2	0.3901	6.3301	1.5067	3.9152	14	220	0.874635056605323	0	1
"221"	14	5	4	1	1.49	1	7	-1	0	2.25	1.0662	-1.9259	-1.8826	1.8873	-5.9691	-2.7663	1.3831	7.8023	10.9543	-0.2441	0.8819	0.453	8.9335	-0.9059	10.6537	0.0034	2.1479	-8.2941	2.865	4.3795	0.333	0.333	0.333	0.333	0.333	0.333	0.333	0.333	0.333	0.333	0.333	0.333	0.333	0.333	0.333	0.333	0.333	0.333	0.333	6.327	1.4487	3.7005	14	221	0.810930216216329	0	1
"222"	14	42	4	4	5.96	0	5	1	1	1.237	9.4522	0.4192	2.6034	8.2448	11.8414	6.8493	-4.4124	-4.1813	6.489	6.0976	4.0695	-0.6563	8.7791	4.0363	7.4171	11.8498	10.8592	7.2256	12.9868	7.7447	0.3245	0.2287	0.3486	0.2121	0.4171	0.3387	0.3788	0.4999	0.3369	0.4885	0.5193	0.2075	0.3187	0.2702	0.24	0.2072	0.3057	0.2406	0.4501	6.3331	1.6083	2.8543	14	222	0.212689093410351	1	0
"223"	14	32	4	0	0	1	6	1	0	1.698	1.2926	-7.0897	-0.473	-0.5477	4.67	8.9937	5.0373	2.877	-3.0982	0.4973	6.1013	-0.2269	-4.4394	-10.8056	-0.5005	-0.3105	-7.2585	0.1838	1.3815	5.4636	0.333	0.333	0.333	0.333	0.333	0.333	0.333	0.333	0.333	0.333	0.333	0.333	0.333	0.333	0.333	0.333	0.333	0.333	0.333	6.327	1.4944	3.2155	14	223	0.529451087889156	1	0
"224"	14	17	4	-1	-1.49	1	3	-1	1	0.746	-3.7027	1.5036	-1.1374	-0.2849	-3.1534	8.8752	-5.116	6.7587	-0.0963	-0.3277	-4.6275	3.4051	-3.601	-0.3652	-9.5963	-7.2001	0.9423	-1.2024	-11.2581	2.3042	0.333	0.333	0.333	0.333	0.333	0.333	0.333	0.333	0.333	0.333	0.333	0.333	0.333	0.333	0.333	0.333	0.333	0.333	0.333	6.327	1.5829	2.3472	14	224	-0.293029678778376	0	1
"225"	14	15	4	-4	-5.96	1	4	-1	1	1.332	-1.2034	-2.9479	-11.9234	-3.6211	-17.4629	-5.2731	0.6503	-9.9492	-1.7124	-6.1388	-7.8936	1.1286	-13.1242	1.7634	-4.9755	-9.979	-6.8418	-3.1668	-8.5988	-8.469	0.333	0.333	0.333	0.333	0.333	0.333	0.333	0.333	0.333	0.333	0.333	0.333	0.333	0.333	0.333	0.333	0.333	0.333	0.333	6.327	1.4157	2.766	14	225	0.286681572118197	0	1
"226"	14	63	4	4	5.96	1	5	1	1	1.346	8.5858	3.7789	7.009	4.413	2.0207	6.1091	7.9418	3.2856	4.0025	11.2413	13.536	3.2187	5.9729	9.7251	0.0713	-4.8167	0.923	7.384	7.0479	17.3312	0.333	0.333	0.333	0.333	0.333	0.333	0.333	0.333	0.333	0.333	0.333	0.333	0.333	0.333	0.333	0.333	0.333	0.333	0.333	6.327	1.6432	2.9963	14	226	0.297137231222536	1	0
"227"	14	40	4	1	1.49	0	5	1	1	1.599	-1.1992	1.6357	0.455	5.6035	-3.8515	8.1478	9.5124	4.9615	-7.633	4.3982	-1.997	-2.5927	-5.7317	5.5769	-0.6716	-4.9747	1.005	8.3611	6.6855	3.7334	0.2534	0.5145	0.2343	0.4149	0.3567	0.5131	0.272	0.3572	0.2407	0.204	0.2544	0.3542	0.2837	0.2077	0.3101	0.4397	0.3412	0.4889	0.2787	6.3197	1.5496	3.1662	14	227	0.469378433851817	1	0
"228"	14	23	4	-2	-2.98	0	5	-1	1	1.478	-4.0834	4.3269	-4.923	0.1001	-4.1496	-3.0035	-1.6992	-9.2383	2.3378	-6.3588	-7.8626	-0.9424	-16.8309	-0.7804	1.385	0.5909	-4.0259	-6.7782	-1.2926	4.0444	0.3579	0.2208	0.307	0.4343	0.2305	0.382	0.3359	0.2268	0.5133	0.4711	0.2884	0.3183	0.4131	0.2814	0.3146	0.2535	0.3463	0.2185	0.4153	6.3291	1.661	3.1458	14	228	0.39068982252601	0	1
"229"	14	2	4	-2	-2.98	1	4	-1	1	1.086	-5.7116	5.4779	-4.9009	2.7072	-2.8466	-1.6401	0.557	-0.6749	-3.3837	-6.111	-2.7552	-12.3246	-4.5951	-5.4212	7.6001	-3.9897	0.652	-9.4355	-3.9665	-9.9783	0.333	0.333	0.333	0.333	0.333	0.333	0.333	0.333	0.333	0.333	0.333	0.333	0.333	0.333	0.333	0.333	0.333	0.333	0.333	6.327	1.7243	2.8199	14	229	0.0825012215117438	0	1
"230"	14	33	4	1	1.49	1	6	1	1	1.982	-1.7953	-0.7816	2.5774	4.4856	0.483	10.6386	-2.6632	-5.9091	10.1239	4.033	0.6653	4.5944	-2.6163	-0.2139	1.7755	-0.6083	7.8087	7.1024	-8.4037	-2.4349	0.333	0.333	0.333	0.333	0.333	0.333	0.333	0.333	0.333	0.333	0.333	0.333	0.333	0.333	0.333	0.333	0.333	0.333	0.333	6.327	1.6957	3.6824	14	230	0.684106435907796	1	0
"231"	14	54	4	1	1.49	0	6	1	1	1.967	3.7113	3.5967	-2.7198	-2.9883	3.543	13.3713	2.059	-1.717	-1.5306	-4.8169	-0.2247	-1.9273	4.891	7.356	4.6432	4.8401	-5.7744	-5.7955	3.4727	6.4128	0.5038	0.4017	0.2692	0.2408	0.4435	0.2222	0.2956	0.2377	0.3873	0.2059	0.4166	0.5328	0.2789	0.2501	0.3273	0.2724	0.3615	0.254	0.4277	6.329	1.6226	3.6011	14	231	0.676509539406922	1	0
"232"	14	48	4	2	2.98	1	6	-1	0	1.751	0.6048	4.0655	-9.7869	2.8623	1.276	3.5355	9.9694	5.2843	-1.2623	1.9091	14.628	-3.0544	3.0423	0.462	0.1783	4.1568	1.6424	7.5833	7.6404	4.6757	0.333	0.333	0.333	0.333	0.333	0.333	0.333	0.333	0.333	0.333	0.333	0.333	0.333	0.333	0.333	0.333	0.333	0.333	0.333	6.327	1.5559	3.3182	14	232	0.560187053303715	0	1
"233"	14	37	4	-2	-2.98	0	7	-1	1	1.869	-0.2434	-3.9861	6.6443	-2.5823	-6.4674	-9.2453	3.0237	-8.9358	-3.683	-8.8769	2.3161	-1.2549	-2.3835	-13.2535	-6.2178	-3.9851	-1.3369	4.955	-4.7507	-0.1942	0.2267	0.4091	0.2531	0.307	0.2448	0.3469	0.2996	0.4772	0.432	0.3292	0.5035	0.2256	0.3411	0.378	0.2624	0.3337	0.2794	0.2205	0.4623	6.332	1.6562	3.5362	14	233	0.625403528473426	0	1
"234"	14	68	4	1	1.49	0	7	1	1	1.986	1.7832	-0.1399	8.4652	5.0278	1.6634	5.2303	-5.7985	1.9245	-9.2951	3.8246	2.5055	-2.4957	6.8079	1.8068	3.8404	-7.8922	1.3068	-1.2284	8.3052	5.0047	0.483	0.3353	0.2043	0.4574	0.2427	0.2023	0.2826	0.3884	0.3231	0.205	0.3498	0.4955	0.3238	0.2887	0.209	0.2471	0.5096	0.4347	0.3469	6.3294	1.515	3.5036	14	234	0.686122565622981	1	0
"235"	14	22	4	-4	-5.96	0	4	-1	1	1.364	-10.2387	-5.0661	-4.8594	-14.4418	0.2403	-4.5893	-3.3725	-8.8652	-3.1478	-9.6617	-9.2991	-14.7598	-3.3788	-6.1133	-2.7265	1.6598	-6.3105	-13.9316	-1.4926	0.8702	0.3763	0.3479	0.2935	0.3877	0.3112	0.2438	0.2154	0.4519	0.5067	0.4313	0.3129	0.2349	0.3433	0.2417	0.3539	0.4448	0.2394	0.3757	0.2189	6.3313	1.4763	2.8484	14	235	0.31042155942127	0	1
"236"	14	36	4	-4	-5.96	0	6	-1	1	1.967	-2.4515	-13.584	-6.5416	3.6944	-2.355	-3.3609	-17.5189	-6.7411	-6.293	-10.9062	-3.4951	-10.8483	-7.1336	-4.9989	-1.0531	1.018	-3.506	-5.5271	-10.2242	-7.9498	0.3243	0.2687	0.348	0.4744	0.3393	0.2517	0.4368	0.3402	0.3759	0.2989	0.3646	0.414	0.2501	0.3079	0.2035	0.389	0.2849	0.3432	0.3113	6.3267	1.411	3.4009	14	236	0.676509539406922	0	1
"237"	14	19	4	1	1.49	1	6	1	1	1.837	4.5493	-5.2557	2.1777	1.7843	8.0938	4.1291	-2.4406	-1.3985	1.6504	9.0152	-1.8197	-3.5879	2.5725	-0.2075	-5.7427	12.9793	2.8164	2.0104	5.7229	-6.2955	0.333	0.333	0.333	0.333	0.333	0.333	0.333	0.333	0.333	0.333	0.333	0.333	0.333	0.333	0.333	0.333	0.333	0.333	0.333	6.327	1.6172	3.4712	14	237	0.608133806232989	1	0
"238"	14	29	4	-4	-5.96	1	4	-1	1	1.278	-4.2179	-1.8402	-14.9216	-6.3644	-13.3315	-6.4976	-4.616	-9.874	-2.289	5.8814	-13.3993	-12.7725	-6.2624	-3.7947	-6.7044	-4.536	-5.2133	-4.6131	-3.8381	-1.0702	0.333	0.333	0.333	0.333	0.333	0.333	0.333	0.333	0.333	0.333	0.333	0.333	0.333	0.333	0.333	0.333	0.333	0.333	0.333	6.327	1.6081	2.8957	14	238	0.245296355955343	0	1
"239"	14	1	4	-4	-5.96	1	4	-1	1	1.197	-7.6763	-2.7983	-7.6841	-8.7593	-13.5763	-5.7857	-18.3069	-6.8406	-8.1315	-2.3077	-9.0938	-5.339	-2.7247	-9.6088	2.3001	-1.3978	2.9389	-6.0548	-4.482	-2.3154	0.333	0.333	0.333	0.333	0.333	0.333	0.333	0.333	0.333	0.333	0.333	0.333	0.333	0.333	0.333	0.333	0.333	0.333	0.333	6.327	1.4421	2.6473	14	239	0.179818426575836	0	1
"240"	14	65	4	-2	-2.98	0	8	-1	1	2.539	-3.8685	-7.3688	-5.201	-5.1039	0.0305	-6.5862	-6.7819	3.2098	-0.6606	-1.8701	5.0913	-9.0411	1.0319	-6.9805	7.182	-1.4219	-7.5898	2.6018	-3.8958	-12.0703	0.3048	0.4656	0.234	0.2693	0.203	0.4744	0.5045	0.2577	0.2297	0.3493	0.2018	0.3641	0.2716	0.3471	0.3848	0.2087	0.4364	0.3933	0.4282	6.3282	1.4054	3.9563	14	240	0.931770302722541	0	1
"241"	14	26	4	1	1.49	0	7	1	1	2.046	4.1262	10.4888	-0.0115	-4.9787	10.8199	-1.8897	4.7719	-4.1966	4.1301	2.8859	-2.1803	9.6323	6.3687	-4.7509	-4.0184	2.5811	-1.5242	0.6464	-3.4021	1.3064	0.315	0.205	0.2994	0.3376	0.5197	0.2371	0.4858	0.3861	0.2002	0.3224	0.4994	0.3083	0.5147	0.258	0.2831	0.2551	0.2048	0.4106	0.2878	6.3303	1.6428	3.6964	14	241	0.715886667529435	1	0
"242"	14	3	4	-1	-1.49	1	4	-1	1	1.155	-5.6483	-9.9142	-5.045	4.866	-2.3382	4.0027	-1.3539	-1.7677	0.9393	-1.4732	-2.1753	1.9112	1.944	-4.5713	-2.2091	0.109	-6.0097	-9.1484	11.7259	-2.2959	0.333	0.333	0.333	0.333	0.333	0.333	0.333	0.333	0.333	0.333	0.333	0.333	0.333	0.333	0.333	0.333	0.333	0.333	0.333	6.327	1.58	2.7393	14	242	0.144100343973757	0	1
"243"	14	58	4	-2	-2.98	1	6	-1	1	1.752	-6.773	-3.1734	-1.3213	-2.7226	-9.1744	-5.1452	-6.9669	0.0963	-5.8518	-3.9615	2.6545	0.4906	-1.7043	-12.0261	2.0842	7.8336	-4.4353	-4.3682	-10.4687	4.4888	0.333	0.333	0.333	0.333	0.333	0.333	0.333	0.333	0.333	0.333	0.333	0.333	0.333	0.333	0.333	0.333	0.333	0.333	0.333	6.327	1.492	3.2525	14	243	0.5607579925142	0	1
"244"	14	53	4	0	0	0	6	1	0	1.758	-1.0099	-0.2755	-2.5821	0.8002	-5.2812	1.2504	-8.7518	1.4216	0.2426	-6.1549	11.3296	5.7232	5.5599	-6.0767	1.6462	1.496	6.6344	1.3635	-6.2304	0.0895	0.2705	0.3253	0.5215	0.2164	0.372	0.4339	0.3845	0.2615	0.4337	0.4052	0.367	0.3984	0.2115	0.3956	0.2876	0.2602	0.3099	0.2093	0.2581	6.3223	1.562	3.3259	14	244	0.564176799262985	1	0
"245"	14	45	4	-1	-1.49	1	5	-1	1	1.483	-3.1622	-1.3199	-7.5722	-3.242	0.9553	3.483	-5.909	0.6136	-6.8318	11.8903	-3.5076	-2.5991	-4.8658	0.7564	2.9737	-6.145	-5.5201	-7.2566	4.7097	4.1264	0.333	0.333	0.333	0.333	0.333	0.333	0.333	0.333	0.333	0.333	0.333	0.333	0.333	0.333	0.333	0.333	0.333	0.333	0.333	6.327	1.4145	2.8999	14	245	0.394067063155795	0	1
"246"	14	49	4	4	5.96	1	4	1	1	1.288	3.9758	11.3667	11.6907	2.0387	3.7842	4.6342	7.5984	3.9064	-3.5081	6.5631	6.3375	6.4456	0.9549	11.9166	12.2909	11.4042	5.4984	13.5014	-4.3195	3.3492	0.333	0.333	0.333	0.333	0.333	0.333	0.333	0.333	0.333	0.333	0.333	0.333	0.333	0.333	0.333	0.333	0.333	0.333	0.333	6.327	1.5522	2.8383	14	246	0.253090627682162	1	0
"247"	14	64	4	-4	-5.96	0	4	-1	1	1.147	-9.4013	-3.3488	-4.3171	-2.664	-12.5423	-0.7028	-8.3612	-12.7509	-11.2054	-6.7942	0.5528	-7.5728	-7.9789	5.1841	-9.4207	-12.1257	-9.5172	-5.2164	1.0373	-1.5619	0.212	0.3975	0.3707	0.5107	0.2921	0.2513	0.3279	0.2821	0.226	0.3771	0.2964	0.4512	0.2266	0.2808	0.4479	0.284	0.3188	0.3648	0.4141	6.332	1.5525	2.6972	14	247	0.137149838147234	0	1
"248"	14	24	4	-1	-1.49	0	7	-1	1	2.083	-6.1931	-2.4514	2.7225	-4.353	-2.4908	-11.8836	-1.0653	2.3172	-4.8924	-7.222	-0.8444	-1.4944	-2.6875	8.8501	2.964	0.155	0.6482	-6.1118	8.953	-4.3031	0.501	0.2009	0.3363	0.2229	0.4772	0.2448	0.4489	0.2836	0.3126	0.2421	0.4375	0.2366	0.3015	0.2099	0.2501	0.3877	0.3459	0.3786	0.5064	6.3243	1.5433	3.6333	14	248	0.733809162278835	0	1
"249"	14	18	4	0	0	1	7	1	0	2.098	2.079	-1.218	-3.4538	3.9923	-6.2439	1.156	-1.8272	-4.9726	-4.5617	4.6476	5.9427	11.4845	0.3793	-2.9628	5.9597	-5.8786	2.6698	0.532	-9.0171	2.1996	0.333	0.333	0.333	0.333	0.333	0.333	0.333	0.333	0.333	0.333	0.333	0.333	0.333	0.333	0.333	0.333	0.333	0.333	0.333	6.327	1.4949	3.5987	14	249	0.740984509974105	1	0
"250"	14	50	4	-4	-5.96	0	8	-1	1	2.987	-7.4803	0.0397	4.9435	-3.3104	-3.0954	-6.5054	-4.1484	-15.1159	-2.5558	-9.3411	-3.2674	-7.0285	-14.5462	-11.2611	-11.2991	-3.286	-4.9118	-9.5456	-6.57	-2.247	0.276	0.5036	0.2893	0.3811	0.2184	0.4184	0.4543	0.4853	0.3188	0.2538	0.325	0.4473	0.2044	0.2429	0.3585	0.2471	0.3066	0.3929	0.2007	6.3243	1.4638	4.4713	14	250	1.09426953923397	0	1
"251"	14	12	4	1	1.49	0	8	1	1	2.379	0.8184	-0.9254	-5.555	-0.3827	8.6483	-0.6856	6.2257	12.7347	2.1644	6.3646	-2.5137	4.7088	-4.2413	-1.1015	5.8929	3.559	-4.6165	4.7977	-1.2173	-5.3315	0.4463	0.2741	0.2217	0.2992	0.2395	0.4846	0.3828	0.3259	0.2364	0.4567	0.5191	0.2505	0.2234	0.2808	0.2403	0.3515	0.4347	0.2388	0.4271	6.3332	1.7213	4.1128	14	251	0.866680231320821	1	0
"252"	14	66	4	-1	-1.49	0	4	-1	1	1.136	-4.2119	-3.2938	-4.6761	1.4372	-0.6316	-2.3139	8.3821	-2.7776	7.1144	-2.9576	0.7426	-9.779	4.2883	6.9785	-3.8733	-4.6121	-1.9096	-5.1972	-7.8361	-4.4329	0.2915	0.2648	0.3349	0.3936	0.2509	0.4221	0.3848	0.3374	0.2197	0.5053	0.4219	0.3945	0.2984	0.2519	0.511	0.2477	0.2194	0.3136	0.273	6.3365	1.5148	2.6702	14	252	0.12751332029896	0	1
"253"	14	10	4	-1	-1.49	0	4	1	0	1.127	2.5542	2.9712	6.7249	0.4277	-0.1507	3.6726	-3.2652	4.0302	4.1544	-6.7196	-7.0587	-6.0272	0.5949	-1.606	-6.1877	2.0615	-11.1845	-8.6086	0.1048	-5.3565	0.5151	0.3608	0.2003	0.3425	0.235	0.3117	0.234	0.3285	0.3005	0.4926	0.3349	0.4174	0.2821	0.3238	0.2913	0.3588	0.46	0.2404	0.3031	6.3327	1.5588	2.6945	14	253	0.119559235057639	1	0
"254"	14	30	4	-2	-2.98	1	6	-1	1	1.939	-6.2024	3.8834	6.3881	3.8181	-1.0446	-7.3658	-1.4817	-0.8821	-14.3627	-6.211	-4.3984	-4.6899	-6.0268	-2.492	-3.9456	-0.0709	-4.2689	-6.8499	4.6886	-7.1723	0.333	0.333	0.333	0.333	0.333	0.333	0.333	0.333	0.333	0.333	0.333	0.333	0.333	0.333	0.333	0.333	0.333	0.333	0.333	6.327	1.6558	3.6065	14	254	0.662172376260515	0	1
"255"	14	43	4	-4	-5.96	1	7	-1	1	2.135	-5.2068	1.2227	-1.9431	-3.8064	2.3073	-12.8614	-0.4088	-10.3635	-10.9222	-4.292	-12.5868	-2.2923	-9.7107	-9.1677	-12.5067	-6.0635	-6.9986	-6.5854	-7.664	2.2683	0.333	0.333	0.333	0.333	0.333	0.333	0.333	0.333	0.333	0.333	0.333	0.333	0.333	0.333	0.333	0.333	0.333	0.333	0.333	6.327	1.6732	3.8188	14	255	0.758466646680588	0	1
"256"	14	27	4	2	2.98	0	7	1	1	1.813	1.9165	15.8343	4.3842	-3.4335	5.1651	0.7826	9.1435	2.6268	2.6741	2.2533	-3.8894	0.6533	-0.9125	7.3289	4.5053	3.7976	3.5852	-7.4282	7.0852	4.5391	0.2963	0.3597	0.2554	0.2168	0.3307	0.3035	0.2224	0.2879	0.3659	0.3973	0.4462	0.2149	0.3779	0.4035	0.3107	0.5148	0.3326	0.4459	0.2385	6.3211	1.5612	3.3806	14	256	0.594982931772714	1	0
"257"	14	8	4	-4	-5.96	0	5	-1	1	1.592	-8.6372	-4.465	-9.2993	-2.8128	-4.958	-6.6515	-8.7392	-2.6156	-10.2967	-3.8647	-15.1758	-9.559	-10.0585	-10.8969	-8.4525	-0.6616	1.2234	-10.8992	0.093	5.5313	0.3043	0.2455	0.4769	0.2099	0.4922	0.2745	0.4663	0.221	0.3136	0.3612	0.287	0.3308	0.4105	0.2405	0.3949	0.3221	0.2406	0.4399	0.3015	6.333	1.6018	3.2095	14	257	0.464991087422191	0	1
"258"	14	6	4	2	2.98	1	5	1	1	1.377	5.9118	0.6445	-2.2736	5.1333	10.7529	6.0041	-1.0673	12.0507	3.881	6.5644	-2.4706	2.2876	1.5649	6.6942	1.6644	-5.3913	6.3828	-7.325	1.9285	7.1671	0.333	0.333	0.333	0.333	0.333	0.333	0.333	0.333	0.333	0.333	0.333	0.333	0.333	0.333	0.333	0.333	0.333	0.333	0.333	6.327	1.6378	3.0273	14	258	0.319907219746518	1	0
"259"	14	9	4	-2	-2.98	0	6	-1	1	1.625	-4.8939	-5.8392	0.1902	-2.6992	1.3294	-11.2729	-12.0207	0.0739	-3.2418	-4.061	-2.9464	7.2804	-5.518	-4.2813	-3.6278	0.8637	-11.9631	-2.6453	4.1441	0.1205	0.2286	0.2754	0.2048	0.4603	0.2431	0.4377	0.3387	0.3769	0.4806	0.2719	0.3362	0.521	0.266	0.3586	0.2618	0.2176	0.273	0.3257	0.4569	6.3349	1.5727	3.2088	14	259	0.485507815781701	0	1
"260"	14	31	4	-1	-1.49	1	6	1	0	1.961	-3.0949	-0.2613	-4.7335	-0.2147	5.2271	-0.0689	5.9847	8.1406	7.3988	-5.2925	-2.8573	-6.5672	-2.3818	-1.4905	-10.1916	-6.2865	-4.347	1.7785	-7.6287	-2.3032	0.333	0.333	0.333	0.333	0.333	0.333	0.333	0.333	0.333	0.333	0.333	0.333	0.333	0.333	0.333	0.333	0.333	0.333	0.333	6.327	1.6955	3.662	14	260	0.673454547214209	1	0
"261"	14	7	4	4	5.96	1	6	1	1	1.75	6.6601	-2.6376	0.8531	17.0397	8.6164	6.2596	6.0005	6.4214	5.4181	4.2403	8.4986	7.6698	6.3643	16.9052	2.117	5.3232	-1.8031	1.8774	8.4694	4.7075	0.333	0.333	0.333	0.333	0.333	0.333	0.333	0.333	0.333	0.333	0.333	0.333	0.333	0.333	0.333	0.333	0.333	0.333	0.333	6.327	1.4381	3.1837	14	261	0.559615787935423	1	0
"262"	14	14	4	4	5.96	0	4	1	1	1.241	10.7431	2.0078	17.5359	-3.8693	6.7993	11.9258	2.3439	12.9968	3.5682	2.0761	12.5191	4.4889	2.0823	3.7661	4.8138	6.8787	6.325	3.1024	6.0832	1.4628	0.2363	0.3214	0.4623	0.4282	0.3844	0.3017	0.2184	0.3267	0.4842	0.2299	0.2997	0.3889	0.2286	0.4419	0.2449	0.5248	0.3075	0.2056	0.2952	6.3306	1.5428	2.792	14	262	0.21591750622247	1	0
"263"	14	51	4	-2	-2.98	0	6	-1	1	1.626	-6.7325	1.3013	1.6268	2.6621	-1.9983	-6.4649	5.4601	3.0656	-8.5416	-0.8357	-4.6208	-4.9843	2.3897	-1.7539	-5.0135	-10.6689	-0.3473	-13.3885	-6.5464	-3.2991	0.222	0.5006	0.2785	0.3103	0.2125	0.5305	0.2829	0.2194	0.4137	0.4944	0.2183	0.3938	0.4394	0.2926	0.213	0.2384	0.4041	0.318	0.3456	6.3279	1.7001	3.3267	14	263	0.486123011125619	0	1
"264"	14	67	4	0	0	0	3	1	0	0.981	-3.9699	7.4521	-1.9695	-1.9729	2.2386	2.1304	0.7822	-5.5795	2.0871	-4.5831	4.0086	-0.4736	-9.548	-2.9228	7.6298	-0.5599	-3.8947	7.3229	7.328	-5.9624	0.2552	0.4218	0.4478	0.335	0.271	0.4921	0.4039	0.2165	0.4511	0.3838	0.2238	0.2951	0.4805	0.2736	0.2296	0.2965	0.2344	0.401	0.2174	6.33	1.6733	2.6654	14	264	-0.019182819416774	1	0
"265"	14	28	4	4	5.96	0	4	1	1	1.372	5.3911	4.7447	5.4367	7.7475	-2.3751	5.7504	0.4501	-2.0458	8.421	9.1191	12.0174	5.9794	2.5027	8.1413	7.9858	19.3402	4.0062	10.1856	5.573	1.4161	0.4068	0.4519	0.3106	0.2442	0.2754	0.3337	0.4684	0.3781	0.4312	0.2696	0.3094	0.2631	0.2273	0.3904	0.209	0.3991	0.2231	0.5197	0.224	6.3349	1.6983	3.0891	14	265	0.316269529303694	1	0
"266"	14	70	4	4	5.96	0	5	1	1	1.53	7.6847	12.5608	4.4105	10.9779	8.8212	12.5331	12.5228	0.0947	7.5104	7.0764	0.708	-8.2165	4.3448	6.2593	9.025	6.1732	3.9083	6.2563	2.721	4.0817	0.3222	0.2032	0.5283	0.2491	0.3969	0.2036	0.4899	0.3108	0.2127	0.318	0.4431	0.2594	0.4781	0.2182	0.2523	0.4405	0.3112	0.397	0.2846	6.3193	1.5225	3.0644	14	266	0.425267735404344	1	0
"267"	14	34	4	2	2.98	1	4	-1	0	1.311	0.1488	-3.7993	-0.1855	10.9943	0.7912	-6.1047	-1.2955	2.6289	3.7592	10.4459	6.2492	6.283	-0.0841	6.1094	2.1742	-4.3976	2.5716	10.5808	7.672	6.7476	0.333	0.333	0.333	0.333	0.333	0.333	0.333	0.333	0.333	0.333	0.333	0.333	0.333	0.333	0.333	0.333	0.333	0.333	0.333	6.327	1.6763	2.995	14	267	0.270790204781563	0	1
"268"	14	21	4	4	5.96	1	6	1	1	1.78	1.1986	0.4191	-0.2284	13.756	10.718	10.2305	3.6765	8.5823	-0.2523	8.9683	12.8339	14.3535	8.2008	5.092	2.54	8.1585	-0.0282	4.6763	-0.9896	8.4503	0.333	0.333	0.333	0.333	0.333	0.333	0.333	0.333	0.333	0.333	0.333	0.333	0.333	0.333	0.333	0.333	0.333	0.333	0.333	6.327	1.6479	3.4471	14	268	0.576613364303994	1	0
"269"	14	20	4	2	2.98	1	6	1	1	1.707	3.0899	2.6683	1.3311	9.2779	10.3258	3.3881	10.5461	4.382	-5.829	4.8789	5.1676	-0.2597	-0.6458	-7.571	9.8013	2.6613	-2.8084	0.8017	7.3136	1.2036	0.333	0.333	0.333	0.333	0.333	0.333	0.333	0.333	0.333	0.333	0.333	0.333	0.333	0.333	0.333	0.333	0.333	0.333	0.333	6.327	1.6654	3.3915	14	269	0.534737443812304	1	0
"270"	14	39	4	0	0	0	7	-1	1	1.875	1.6331	10.118	-1.2179	0.7136	-5.8222	-3.9402	-0.2293	4.3719	2.3013	-3.1834	-7.6049	-4.319	-10.4047	4.9041	0.7436	-1.6267	6.7324	-0.8958	0.4121	6.5318	0.2282	0.3341	0.2218	0.3236	0.2633	0.2927	0.5091	0.3007	0.2258	0.2651	0.376	0.501	0.5282	0.2473	0.3355	0.4389	0.4858	0.2395	0.2139	6.3304	1.5717	3.4587	14	270	0.628608659422374	0	1
"271"	14	11	4	0	0	0	6	1	1	1.854	1.1254	0.0984	7.2681	-4.0555	4.9336	4.9546	-1.1975	5.6911	-6.4198	-1.9406	-1.0131	-5.1745	-0.8824	-1.3363	-2.2267	7.96	-8.6065	-8.3312	2.6087	5.4752	0.2056	0.27	0.2331	0.3103	0.4662	0.3805	0.4861	0.2044	0.3841	0.344	0.2001	0.2979	0.2718	0.4535	0.2392	0.5077	0.4031	0.2834	0.3822	6.3233	1.6857	3.5549	14	271	0.617345467143663	1	0
"272"	14	62	4	2	2.98	1	5	1	1	1.576	-0.6337	5.2189	3.0461	1.9772	3.9598	11.6933	-4.9325	2.1226	-0.5436	3.6372	-3.3065	0.4207	4.5022	2.1564	-0.0077	6.7212	10.5349	8.2885	-5.7496	11.008	0.333	0.333	0.333	0.333	0.333	0.333	0.333	0.333	0.333	0.333	0.333	0.333	0.333	0.333	0.333	0.333	0.333	0.333	0.333	6.327	1.6418	3.2264	14	272	0.454889991435687	1	0
"273"	14	46	4	0	0	1	4	-1	0	1.259	-1.0704	-4.568	-6.299	1.1379	0.8757	0.8832	8.1984	-4.8409	4.8401	-3.629	-8.8231	-1.949	-3.8925	0.4241	-2.2885	-4.3109	4.0666	10.3464	3.6375	6.3842	0.333	0.333	0.333	0.333	0.333	0.333	0.333	0.333	0.333	0.333	0.333	0.333	0.333	0.333	0.333	0.333	0.333	0.333	0.333	6.327	1.6746	2.9426	14	273	0.23031775506221	0	1
"274"	14	44	4	-2	-2.98	1	7	-1	1	2.21	-3.6026	5.2673	5.511	2.119	-5.4709	4.5639	-8.0776	-8.9657	-5.6205	-4.5842	-4.9151	3.1056	-1.4723	-8.4655	-5.7838	-4.5382	-6.9538	-10.4186	0.3597	-2.0414	0.333	0.333	0.333	0.333	0.333	0.333	0.333	0.333	0.333	0.333	0.333	0.333	0.333	0.333	0.333	0.333	0.333	0.333	0.333	6.327	1.4745	3.694	14	274	0.792992515529661	0	1
"275"	14	59	4	-1	-1.49	1	5	-1	1	1.508	-1.748	-1.934	-11.1836	-7.0403	-0.4643	0.4814	1.3223	-1.7669	-2.2076	-1.1471	6.4816	-3.6651	-2.7713	-8.9077	-7.8734	-2.211	1.1462	3.9588	9.3301	0.8031	0.333	0.333	0.333	0.333	0.333	0.333	0.333	0.333	0.333	0.333	0.333	0.333	0.333	0.333	0.333	0.333	0.333	0.333	0.333	6.327	1.413	2.9256	14	275	0.410784269585764	0	1
"276"	14	35	4	4	5.96	1	4	1	1	1.111	8.6628	-3.8477	3.4525	0.3	6.887	2.5538	17.6967	4.9408	3.2089	0.7779	12.9581	-0.6198	5.7754	6.7857	6.2438	12.779	5.4593	10.3368	7.1964	6.025	0.333	0.333	0.333	0.333	0.333	0.333	0.333	0.333	0.333	0.333	0.333	0.333	0.333	0.333	0.333	0.333	0.333	0.333	0.333	6.327	1.5583	2.6787	14	276	0.105260510657493	1	0
"277"	14	41	4	2	2.98	0	3	1	1	1.271	3.8314	13.5024	6.7986	2.5385	-1.0259	2.9181	3.9757	4.4396	-2.3636	4.3232	1.1995	-4.4329	11.4389	-0.4342	0.2343	6.7477	-4.3951	-1.8303	10.3047	1.4506	0.3412	0.4726	0.5054	0.3386	0.2097	0.3558	0.3042	0.4603	0.2211	0.2716	0.2273	0.3166	0.384	0.2021	0.4342	0.2744	0.3308	0.2278	0.4475	6.3252	1.4388	2.7049	14	277	0.239803992207317	1	0
"278"	14	57	4	-4	-5.96	1	6	-1	1	1.701	-10.8552	-0.2681	2.3803	-9.06	-6.3554	-3.243	-11.178	-15.8411	-9.6516	0.9057	-5.5532	-6.3839	-8.2478	-12.516	-5.8626	-0.4935	-9.5574	-3.9963	-3.9	-0.3948	0.333	0.333	0.333	0.333	0.333	0.333	0.333	0.333	0.333	0.333	0.333	0.333	0.333	0.333	0.333	0.333	0.333	0.333	0.333	6.327	1.4109	3.1353	14	278	0.531216313413725	0	1
"279"	14	25	4	0	0	0	8	-1	0	2.597	-1.7204	5.6678	4.6546	0.0365	-3.8955	-5.9918	0.535	-11.2297	1.5068	-7.6985	2.1917	10.5703	3.8001	4.9669	-3.1187	0.5758	-1.5289	0.9904	0.3688	-0.2344	0.5053	0.3539	0.2631	0.2015	0.2683	0.4243	0.239	0.4574	0.4124	0.261	0.2274	0.4942	0.2351	0.3636	0.3174	0.5004	0.3325	0.2227	0.2562	6.3358	1.521	4.1312	14	279	0.954356932680611	0	1
