"subNo"	"index"	"block"	"level"	"mean"	"periodicity"	"nEvents"	"answer"	"isCorrect"	"rt"	"s1"	"s2"	"s3"	"s4"	"s5"	"s6"	"s7"	"s8"	"s9"	"s10"	"s11"	"s12"	"s13"	"s14"	"s15"	"s16"	"s17"	"s18"	"s19"	"s20"	"t1"	"t2"	"t3"	"t4"	"t5"	"t6"	"t7"	"t8"	"t9"	"t10"	"t11"	"t12"	"t13"	"t14"	"t15"	"t16"	"t17"	"t18"	"t19"	"seqDuration"	"startInterval"	"trialDuration"	"pID"	"Trial"	"rtLog"	"right"	"left"
"1"	2	10	1	-1	-1.77	0	13	-1	1	4.201	1.6926	-6.6152	-4.2643	4.4292	0.0918	-1.9377	-6.9017	4.6487	-6.283	-6.4371	3.458	-6.5503	-0.4475	7.5603	-6.6183	-4.0325	-4.7567	-7.6905	5.3905	0.4441	0.4463	0.3833	0.2894	0.2326	0.323	0.3521	0.2653	0.2353	0.493	0.3317	0.3897	0.3335	0.2036	0.4463	0.2003	0.401	0.2195	0.2957	0.4891	6.3304	1.6122	5.8184	2	1	1.43532259218725	0	1
"2"	2	16	1	-2	-3.54	1	10	1	0	3.307	-3.9307	-4.1272	-1.0088	-6.2208	-0.4783	-14.5235	-3.2912	0.6721	-4.8478	-7.514	-10.0464	5.2142	-7.2498	-5.1464	-2.75	4.0057	3.0305	-7.4579	-8.1284	1.9996	0.333	0.333	0.333	0.333	0.333	0.333	0.333	0.333	0.333	0.333	0.333	0.333	0.333	0.333	0.333	0.333	0.333	0.333	0.333	6.327	1.5411	4.8577	2	2	1.19604143399966	1	0
"3"	2	17	1	-1	-1.77	1	4	-1	1	1.166	-3.6435	-2.8532	-6.3384	0.1193	6.3685	-7.9978	5.1847	4.4528	-3.5597	3.3112	-5.3556	-0.4709	-2.7449	-2.1959	1.4757	-3.8845	-4.102	6.517	-5.5648	-12.5915	0.333	0.333	0.333	0.333	0.333	0.333	0.333	0.333	0.333	0.333	0.333	0.333	0.333	0.333	0.333	0.333	0.333	0.333	0.333	6.327	1.5098	2.6829	2	3	0.153579087928301	0	1
"4"	2	13	1	2	3.54	0	5	1	1	1.628	7.0586	1.6573	-7.8969	7.9464	0.9399	6.4447	-5.0065	0.2436	5.576	1.1668	-2.28	0.6559	4.7377	5.8307	14.2713	6.4113	3.2044	4.0005	5.5801	8.9009	0.4299	0.3884	0.2594	0.3645	0.4962	0.2952	0.2234	0.4415	0.2776	0.3868	0.3407	0.3062	0.2035	0.3822	0.2739	0.3162	0.2043	0.4878	0.2397	6.3173	1.4182	3.0622	2	4	0.487352267580348	1	0
"5"	2	52	1	-1	-1.77	0	4	-1	1	1.233	-5.7699	-2.8794	-0.9826	4.6701	-1.7481	-3.7071	1.7774	-5.6848	5.8756	-9.1922	-11.1745	-9.9859	-0.2686	5.2634	3.7808	-0.1388	-0.1858	-6.3414	1.4934	-1.7299	0.2566	0.3659	0.3372	0.3755	0.2274	0.3459	0.3897	0.2023	0.231	0.4337	0.4659	0.3803	0.3109	0.3622	0.3044	0.2587	0.522	0.2096	0.3379	6.317	1.7072	2.9505	2	5	0.209450224182207	0	1
"6"	2	41	1	2	3.54	0	3	-1	0	0.87	0.2379	-5.7897	10.078	3.5414	11.1907	2.8516	-0.0967	11.9561	1.305	0.7702	0.9794	11.2999	5.9648	2.7111	2.7101	2.8179	-0.6697	5.6164	-4.6952	7.1647	0.3069	0.4742	0.3378	0.3051	0.2131	0.2748	0.3908	0.3243	0.2055	0.5181	0.2319	0.3774	0.2291	0.3721	0.4537	0.2377	0.3368	0.3841	0.3445	6.3182	1.5002	2.3873	2	6	-0.139262067333508	0	1
"7"	2	29	1	-4	-7.08	1	7	-1	1	2.251	-10.2492	-0.6391	-4.2623	-10.9168	-6.9796	-6.8601	-9.6074	-10.2127	-16.349	-12.1155	-4.6802	-8.1048	8.0292	-6.3206	-5.2211	-9.2231	-8.0912	-9.3206	-2.2444	-9.0937	0.333	0.333	0.333	0.333	0.333	0.333	0.333	0.333	0.333	0.333	0.333	0.333	0.333	0.333	0.333	0.333	0.333	0.333	0.333	6.327	1.6444	3.9015	2	7	0.811374561924595	0	1
"8"	2	49	1	4	7.08	1	7	1	1	2.003	8.155	7.0413	5.1746	3.7078	6.9422	6.1697	7.9636	11.6331	-5.7839	10.1966	2.1095	18.9023	12.5737	4.0885	6.8668	10.6926	10.1128	3.0311	1.8076	8.2278	0.333	0.333	0.333	0.333	0.333	0.333	0.333	0.333	0.333	0.333	0.333	0.333	0.333	0.333	0.333	0.333	0.333	0.333	0.333	6.327	1.5673	3.5872	2	8	0.694646056683681	1	0
"9"	2	15	1	-4	-7.08	1	4	-1	1	1.027	-10.3033	-9.7038	-14.7495	-12.7759	-4.3404	-5.0585	-8.7027	-10.0483	-2.244	-1.1115	2.5405	-7.2702	-7.2314	2.3141	-13.4297	-10.0597	-11.9083	-2.9129	-9.7136	-3.805	0.333	0.333	0.333	0.333	0.333	0.333	0.333	0.333	0.333	0.333	0.333	0.333	0.333	0.333	0.333	0.333	0.333	0.333	0.333	6.327	1.4637	2.494	2	9	0.0266419309464211	0	1
"10"	2	7	1	4	7.08	1	3	1	1	0.983	9.3071	13.2405	14.8576	6.5888	9.2611	-1.8189	14.2513	4.8787	-0.2052	12.9407	6.022	7.4918	7.0777	11.8828	1.2216	4.2429	7.9255	7.4484	-0.5816	7.3324	0.333	0.333	0.333	0.333	0.333	0.333	0.333	0.333	0.333	0.333	0.333	0.333	0.333	0.333	0.333	0.333	0.333	0.333	0.333	6.327	1.7035	2.7004	2	10	-0.0171461588349705	1	0
"11"	2	9	1	-2	-3.54	0	5	-1	1	1.588	-0.2116	-6.2018	-5.2528	-1.2031	-5.5571	-2.3849	0.3855	6.1843	-10.4851	-4.4188	-0.9863	-5.4455	-5.3483	-4.0394	1.1499	5.3543	0.7321	-11.8916	-9.0333	-10.794	0.4065	0.2832	0.3744	0.4669	0.3616	0.2048	0.2616	0.376	0.2538	0.2166	0.3517	0.3054	0.2507	0.4281	0.3079	0.516	0.2899	0.2597	0.405	6.3198	1.4115	3.0051	2	11	0.462475362824944	0	1
"12"	2	69	1	2	3.54	0	12	-1	0	3.872	-0.6286	5.8624	8.6547	-2.7052	0.5652	1.1312	3.283	1.0351	7.7698	1.5424	5.6049	6.1432	3.8492	1.9043	9.5331	-7.4441	14.0899	-1.4989	7.9515	3.8393	0.5313	0.2409	0.202	0.4237	0.3811	0.2084	0.255	0.2111	0.4142	0.3697	0.2824	0.4986	0.409	0.3278	0.2857	0.4553	0.2729	0.3504	0.2158	6.3354	1.4084	5.2897	2	12	1.35377116941433	0	1
"13"	2	23	1	-2	-3.54	0	3	-1	1	0.957	-6.7337	-8.4562	1.0132	0.9074	-5.9711	6.5889	-5.3253	-14.7728	0.8812	-2.6524	-0.2478	-8.7141	-0.722	-7.7833	-6.1458	3.0419	-7.4092	-1.936	-2.731	-1.9887	0.2069	0.4714	0.3845	0.3413	0.2031	0.2744	0.4342	0.2115	0.2498	0.4054	0.2523	0.3169	0.2055	0.3773	0.525	0.3037	0.4844	0.2976	0.3819	6.3272	1.4873	2.4406	2	13	-0.0439518875291828	0	1
"14"	2	26	1	1	1.77	0	19	-1	0	6.148	-1.2179	6.678	-3.7632	1.6882	3.3449	3.9504	2.1149	-7.1261	-3.3932	11.0838	-1.5438	-6.734	10.5669	0.8263	-2.4844	4.1813	3.9698	3.9099	1.1377	6.375	0.2647	0.4815	0.3859	0.2563	0.4904	0.2653	0.3319	0.3576	0.2098	0.3215	0.502	0.2242	0.2786	0.4907	0.251	0.4023	0.2808	0.2503	0.2899	6.3347	1.4703	7.6153	2	14	1.81612682567635	0	1
"15"	2	40	1	1	1.77	0	9	1	1	3.001	3.0997	4.0336	0.2665	8.4344	-2.4757	2.8885	-0.9069	7.3988	-6.9958	4.7238	0.847	11.2446	3.3905	-3.9098	-1.7236	4.6664	-1.6591	-0.9976	8.8005	-6.2486	0.3051	0.397	0.3514	0.2709	0.4743	0.2662	0.4893	0.2373	0.4169	0.5135	0.2314	0.3107	0.2761	0.3504	0.386	0.2084	0.287	0.2168	0.3394	6.3282	1.4955	4.5184	2	15	1.09894556645823	1	0
"16"	2	45	1	-1	-1.77	1	5	-1	1	1.58	0.3861	-13.967	1.3315	1.167	-1.1233	-8.222	-3.7487	-4.1119	-5.5222	-7.288	4.8185	0.0415	1.4287	-6.6919	-2.8888	0.1075	-0.266	7.2225	3.5263	-2.893	0.333	0.333	0.333	0.333	0.333	0.333	0.333	0.333	0.333	0.333	0.333	0.333	0.333	0.333	0.333	0.333	0.333	0.333	0.333	6.327	1.5685	3.1646	2	16	0.457424847038875	0	1
"17"	2	39	1	0	0	0	5	-1	0	1.359	-2.1695	2.3251	-2.7432	5.5665	-3.5771	4.875	-6.783	-0.9017	6.8719	-4.4164	-3.1407	-1.0711	-3.0295	-8.8103	-0.5172	7.6267	1.6268	11.1841	-0.645	-2.6697	0.2546	0.4875	0.2416	0.3113	0.2534	0.4328	0.2144	0.3627	0.4961	0.2633	0.3656	0.2118	0.2738	0.3252	0.2471	0.28	0.5254	0.4844	0.2904	6.3213	1.6295	3.01	2	17	0.306749135169007	0	1
"18"	2	56	1	4	7.08	0	7	1	1	1.749	10.1787	2.3874	4.586	6.2172	9.3275	5.7503	9.4913	6.7496	17.84	8.3614	16.9458	4.4896	-3.4343	1.8243	0.9817	9.9281	9.465	3.3575	8.9366	7.8221	0.2657	0.4021	0.2388	0.2736	0.2467	0.3191	0.3745	0.4102	0.3785	0.3368	0.4867	0.3423	0.2644	0.2029	0.3154	0.2457	0.4785	0.2508	0.5039	6.3364	1.5948	3.3501	2	18	0.559044196036465	1	0
"19"	2	37	1	-2	-3.54	0	10	-1	1	3.313	-0.8069	-5.7277	6.0341	-4.3754	1.5045	-0.881	-7.6997	-11.6492	-6.6054	-9.0761	-2.699	1.9664	-9.7161	-0.455	-2.7698	-12.3531	4.736	-3.9471	-1.3181	-5.3365	0.2891	0.4724	0.5204	0.423	0.2481	0.3089	0.2068	0.2689	0.2066	0.4018	0.2459	0.4162	0.4901	0.3167	0.3909	0.2502	0.2886	0.3503	0.2229	6.3178	1.6004	4.9306	2	19	1.19785412331776	0	1
"20"	2	31	1	-1	-1.77	1	18	1	0	5.934	-0.2837	-9.6028	1.8285	-4.2109	1.65	-3.6583	-7.886	-3.2733	-2.7319	4.1892	-7.4427	2.7082	3.3054	-12.3082	0.264	5.4824	-3.6972	-0.539	3.9605	-4.3434	0.333	0.333	0.333	0.333	0.333	0.333	0.333	0.333	0.333	0.333	0.333	0.333	0.333	0.333	0.333	0.333	0.333	0.333	0.333	6.327	1.6222	7.5677	2	20	1.78069852186863	1	0
"21"	2	33	1	1	1.77	1	7	-1	0	2.166	0.0936	5.9745	-10.7964	1.9158	1.425	-1.5803	5.5005	1.1514	1.5943	0.5268	-6.8638	5.2479	6.0811	2.8044	9.6874	-0.004	7.8679	-4.0063	2.5873	4.6162	0.333	0.333	0.333	0.333	0.333	0.333	0.333	0.333	0.333	0.333	0.333	0.333	0.333	0.333	0.333	0.333	0.333	0.333	0.333	6.327	1.4322	3.6001	2	21	0.772882148578799	0	1
"22"	2	18	1	0	0	1	11	-1	0	3.576	3.0419	-0.1601	-0.3004	1.7133	3.4511	-9.2397	-2.2578	1.8618	1.9424	5.652	-10.762	1.0377	-2.5928	-6.2738	3.2154	11.4406	0.8425	0.2734	2.7624	-4.8442	0.333	0.333	0.333	0.333	0.333	0.333	0.333	0.333	0.333	0.333	0.333	0.333	0.333	0.333	0.333	0.333	0.333	0.333	0.333	6.327	1.7296	5.3098	2	22	1.27424485731127	0	1
"23"	2	27	1	2	3.54	0	11	1	1	3.71	1.5031	-1.2258	10.0222	0.878	1.1884	4.4293	14.1001	7.2276	6.2859	10.4199	-4.9901	3.1559	5.5477	-0.951	5.3959	4.9333	5.5028	4.5975	1.1117	-7.0762	0.3571	0.477	0.2201	0.393	0.2441	0.4637	0.247	0.2822	0.4899	0.5259	0.2102	0.2416	0.3115	0.3578	0.3892	0.2337	0.3583	0.3177	0.2095	6.3292	1.4042	5.1107	2	23	1.31103187661934	1	0
"24"	2	6	1	2	3.54	1	15	-1	0	4.858	4.2528	1.0882	9.9124	5.0641	7.7421	-0.606	-6.5269	8.6748	3.437	7.9521	-2.2189	-0.2258	11.6746	-0.8246	-4.0901	3.3186	6.5158	8.7563	2.7006	3.4495	0.333	0.333	0.333	0.333	0.333	0.333	0.333	0.333	0.333	0.333	0.333	0.333	0.333	0.333	0.333	0.333	0.333	0.333	0.333	6.327	1.4528	6.309	2	24	1.58062683057998	0	1
"25"	2	44	1	-2	-3.54	1	12	-1	1	3.743	-7.9583	-7.3308	-6.4048	4.4633	-7.6315	0.5796	-3.2331	-5.3624	-8.0434	-3.3229	-13.8333	-2.0395	0.6779	2.5779	-7.8731	-1.8303	2.858	-1.3847	3.0242	-9.4847	0.333	0.333	0.333	0.333	0.333	0.333	0.333	0.333	0.333	0.333	0.333	0.333	0.333	0.333	0.333	0.333	0.333	0.333	0.333	6.327	1.462	5.2269	2	25	1.31988742892229	0	1
"26"	2	42	1	4	7.08	0	5	1	1	1.531	3.8792	19.2385	10.8642	5.4417	10.5492	0.5848	2.5244	5.7272	3.8021	15.8073	5.8616	2.3516	1.171	8.1646	10.7016	6.693	6.9505	5.4472	2.2994	11.6296	0.3274	0.2105	0.3687	0.2718	0.3543	0.5251	0.327	0.4601	0.3399	0.2717	0.2144	0.4622	0.2158	0.2512	0.3153	0.2112	0.4422	0.4994	0.2664	6.3346	1.6199	3.165	2	26	0.425921116675547	1	0
"27"	2	36	1	-4	-7.08	0	5	-1	1	1.176	-10.482	-5.9533	-5.8112	-11.3256	-10.5051	-3.7656	-16.6478	-4.709	-12.0224	-12.313	-3.5716	0.252	-13.7744	-10.4445	-1.3323	-4.904	0.5354	-4.2873	-0.9796	-9.3184	0.2235	0.3498	0.2325	0.3425	0.305	0.4255	0.2067	0.2845	0.3852	0.4219	0.3854	0.2786	0.3685	0.4322	0.3177	0.3691	0.2358	0.5172	0.2417	6.3233	1.6457	2.8433	2	27	0.162118849476435	0	1
"28"	2	51	1	-2	-3.54	0	4	-1	1	1.133	-1.196	-5.714	-1.6557	-6.1645	-0.1872	-5.4295	3.5348	-5.6191	-2.0148	-8.334	1.2063	-9.8135	-0.157	1.3754	-8.9272	-5.0697	2.142	-16.6562	-0.5362	-3.4683	0.2449	0.2069	0.5169	0.4056	0.4427	0.4706	0.2951	0.2113	0.2738	0.2273	0.457	0.2094	0.3683	0.5032	0.2275	0.3147	0.4283	0.229	0.2869	6.3194	1.6059	2.7502	2	28	0.124868982045869	0	1
"29"	2	2	1	-2	-3.54	1	7	-1	1	2.146	-5.6332	1.2535	-3.2833	0.7285	-1.6055	-11.1254	-6.8612	-14.444	-2.7431	-3.1251	-4.0451	-1.7902	3.2428	-6.2714	-0.8372	-6.2245	0.2679	-8.3172	6.7682	-7.9668	0.333	0.333	0.333	0.333	0.333	0.333	0.333	0.333	0.333	0.333	0.333	0.333	0.333	0.333	0.333	0.333	0.333	0.333	0.333	6.327	1.4112	3.5636	2	29	0.763605644208507	0	1
"30"	2	47	1	1	1.77	1	5	1	1	1.626	4.1076	0.7862	2.1487	6.9342	1.7381	5.3437	-4.1338	11.9808	-5.2634	3.155	2.5535	0.4807	-2.3364	-3.5737	2.0718	12.799	-3.0279	-2.4953	-3.8599	5.0354	0.333	0.333	0.333	0.333	0.333	0.333	0.333	0.333	0.333	0.333	0.333	0.333	0.333	0.333	0.333	0.333	0.333	0.333	0.333	6.327	1.7173	3.3597	2	30	0.486123011125619	1	0
"31"	2	60	1	0	0	1	8	-1	1	2.612	-3.3191	4.5302	4.7765	3.1739	-1.0763	-7.1752	-1.9885	-7.7671	1.9451	6.3255	-9.8818	-4.9865	6.4064	2.0047	0.7472	-2.3385	-0.4329	-1.9496	3.7819	8.3847	0.333	0.333	0.333	0.333	0.333	0.333	0.333	0.333	0.333	0.333	0.333	0.333	0.333	0.333	0.333	0.333	0.333	0.333	0.333	6.327	1.4557	4.0793	2	31	0.960116211414185	0	1
"32"	2	64	1	-4	-7.08	0	9	-1	1	2.714	-2.9332	0.8645	-16.7896	-4.0559	-7.1403	-2.0592	-1.2662	-4.9973	-10.483	-6.3227	-12.0745	-4.9933	-13.9397	-8.1727	-5.135	-4.689	0.3149	-12.7069	-13.3721	-9.9501	0.2527	0.4063	0.4614	0.2545	0.2295	0.2546	0.3256	0.3882	0.3542	0.2718	0.3804	0.2959	0.3736	0.2473	0.4583	0.2501	0.4705	0.388	0.2648	6.3277	1.4842	4.1982	2	32	0.998423561412677	0	1
"33"	2	57	1	-4	-7.08	1	4	-1	1	1.228	-10.1535	-6.421	-8.8942	-5.754	-17.1702	-9.9333	-14.0603	-2.3849	3.7906	-12.5975	-9.1294	-7.7691	-0.1971	-10.629	-6.1948	-1.9931	-9.2938	-4.929	-7.9686	-0.9669	0.333	0.333	0.333	0.333	0.333	0.333	0.333	0.333	0.333	0.333	0.333	0.333	0.333	0.333	0.333	0.333	0.333	0.333	0.333	6.327	1.473	2.7121	2	33	0.205386829724951	0	1
"34"	2	1	1	-4	-7.08	1	4	-1	1	1.308	-4.8278	-4.8956	-8.8964	-15.4798	-6.3557	-4.2383	-0.7068	-2.2919	-1.5849	-11.0261	-13.238	-11.4382	4.092	-9.7216	-7.5182	-3.6702	-8.9077	-7.8501	-14.0178	-9.3009	0.333	0.333	0.333	0.333	0.333	0.333	0.333	0.333	0.333	0.333	0.333	0.333	0.333	0.333	0.333	0.333	0.333	0.333	0.333	6.327	1.4135	2.7256	2	34	0.268499253035007	0	1
"35"	2	48	1	2	3.54	1	4	1	1	1.121	-0.0507	9.5951	12.5287	-0.3407	4.7856	0.6616	2.922	8.4787	2.7672	8.5337	3.5924	-2.5294	1.7946	-2.2951	-5.8356	12.5895	4.5533	-0.1223	7.3501	0.9951	0.333	0.333	0.333	0.333	0.333	0.333	0.333	0.333	0.333	0.333	0.333	0.333	0.333	0.333	0.333	0.333	0.333	0.333	0.333	6.327	1.453	2.5718	2	35	0.114221144090023	1	0
"36"	2	8	1	-4	-7.08	0	16	-1	1	5.023	-3.6164	-7.0001	-2.3555	-1.6446	-13.0464	1.9679	-6.7646	-10.0418	-5.0093	-8.8347	0.38	-8.6758	-18.8732	-5.5945	-6.6685	-5.2403	-11.432	-9.9386	-14.413	-4.2963	0.2169	0.3799	0.2246	0.2688	0.5233	0.4701	0.3025	0.2502	0.2066	0.4783	0.3859	0.2911	0.205	0.455	0.3151	0.5206	0.3395	0.2637	0.2297	6.3268	1.5348	6.5572	2	36	1.61402736476791	0	1
"37"	2	11	1	0	0	0	4	-1	0	1.253	-1.029	-5.5203	-1.4375	-3.4525	-0.3284	-4.7212	3.6885	-7.3867	2.2255	7.6651	-5.594	-5.3782	-1.5385	4.4084	5.0034	-2.4909	8.7696	-2.1012	8.6137	-0.7397	0.3578	0.4755	0.2654	0.3315	0.3777	0.2617	0.3265	0.2158	0.3569	0.2836	0.2394	0.4036	0.4397	0.2516	0.3964	0.2019	0.3608	0.4627	0.3131	6.3215	1.4723	2.7208	2	37	0.225540675913931	0	1
"38"	2	4	1	0	0	1	5	-1	1	1.413	-0.4774	4.0343	3.2451	-0.4234	2.0713	3.0832	6.3656	0.3499	5.0746	0.0325	-9.1154	-1.358	-2.5958	7.5555	-12.6698	-5.6936	-0.1511	1.8679	2.5043	-4.2534	0.333	0.333	0.333	0.333	0.333	0.333	0.333	0.333	0.333	0.333	0.333	0.333	0.333	0.333	0.333	0.333	0.333	0.333	0.333	6.327	1.6654	3.0967	2	38	0.34571510370239	0	1
"39"	2	19	1	1	1.77	1	4	-1	0	1.206	-2.2013	-1.6422	0.8413	2.4583	3.7793	6.2105	4.4335	3.3958	4.505	11.2202	4.5783	-4.7133	4.3318	0.3691	0.4897	6.2988	3.0872	-8.7855	-8.609	4.1963	0.333	0.333	0.333	0.333	0.333	0.333	0.333	0.333	0.333	0.333	0.333	0.333	0.333	0.333	0.333	0.333	0.333	0.333	0.333	6.327	1.5992	2.8233	2	39	0.187309098304994	0	1
"40"	2	32	1	0	0	1	7	-1	1	2.19	-3.5099	4.6346	-3.7829	3.4481	4.667	0.6671	2.5213	1.3488	-7.1256	-4.2861	1.3363	5.2212	1.5546	0.0176	-14.9198	7.9539	1.7974	-1.1051	1.6837	-2.6026	0.333	0.333	0.333	0.333	0.333	0.333	0.333	0.333	0.333	0.333	0.333	0.333	0.333	0.333	0.333	0.333	0.333	0.333	0.333	6.327	1.5581	3.7576	2	40	0.783901543828409	0	1
"41"	2	61	1	1	1.77	1	17	1	1	5.427	-0.99	10.0573	4.915	-2.4972	3.878	-1.825	-10.4839	0.2515	-5.1188	-0.2182	2.3591	3.0364	2.6813	7.0032	3.7297	-0.6919	9.5369	-2.2084	2.7981	8.2715	0.333	0.333	0.333	0.333	0.333	0.333	0.333	0.333	0.333	0.333	0.333	0.333	0.333	0.333	0.333	0.333	0.333	0.333	0.333	6.327	1.47	6.911	2	41	1.69138649508127	1	0
"42"	2	20	1	2	3.54	1	4	1	1	1.289	1.3284	8.8267	-0.8831	8.7214	12.0862	12.4493	-2.7128	0.736	5.0764	2.6553	1.5994	7.1048	3.8964	5.7306	-0.8524	2.4064	-2.2608	-4.4391	-0.7695	8.5185	0.333	0.333	0.333	0.333	0.333	0.333	0.333	0.333	0.333	0.333	0.333	0.333	0.333	0.333	0.333	0.333	0.333	0.333	0.333	6.327	1.6307	2.9231	2	42	0.25386672395705	1	0
"43"	2	34	1	2	3.54	1	4	1	1	1.126	2.2516	6.3508	3.6268	1.5483	8.6764	6.4345	6.5921	11.8046	-1.81	2.2048	-0.1975	0.9909	6.2896	1.689	7.1505	0.9414	-9.2698	9.3916	9.1109	-3.6522	0.333	0.333	0.333	0.333	0.333	0.333	0.333	0.333	0.333	0.333	0.333	0.333	0.333	0.333	0.333	0.333	0.333	0.333	0.333	6.327	1.4815	2.61	2	43	0.118671529717499	1	0
"44"	2	46	1	0	0	1	4	1	1	1.049	-1.5771	0.0341	-2.5708	5.2562	-5.1684	0.3059	2.6027	-10.303	-7.38	-1.0323	0.8978	8.2602	0.5927	-4.3508	-4.2637	2.7247	5.8652	4.0294	7.7379	-1.6375	0.333	0.333	0.333	0.333	0.333	0.333	0.333	0.333	0.333	0.333	0.333	0.333	0.333	0.333	0.333	0.333	0.333	0.333	0.333	6.327	1.4995	2.5492	2	44	0.0478373294141601	1	0
"45"	2	5	1	1	1.77	1	5	-1	0	1.512	0.7656	9.0303	3.7347	-4.4426	1.5597	-4.7067	10.6076	2.0843	2.7396	2.7999	-3.9074	-2.893	-6.4256	-2.3613	4.3387	10.7336	0.7653	5.8694	4.8376	2.1859	0.333	0.333	0.333	0.333	0.333	0.333	0.333	0.333	0.333	0.333	0.333	0.333	0.333	0.333	0.333	0.333	0.333	0.333	0.333	6.327	1.4424	2.9632	2	45	0.413433277757341	0	1
"46"	2	30	1	-2	-3.54	1	5	-1	1	1.494	-1.864	-4.8597	-4.6457	-1.7989	0.9708	-2.6466	-5.3043	-4.1235	-1.4162	-5.3201	-0.0188	-8.7212	0.8742	-8.4955	0.6514	9.8505	-8.5293	-13.8832	-5.0659	-5.0077	0.333	0.333	0.333	0.333	0.333	0.333	0.333	0.333	0.333	0.333	0.333	0.333	0.333	0.333	0.333	0.333	0.333	0.333	0.333	6.327	1.5483	3.0452	2	46	0.401457086710626	0	1
"47"	2	54	1	1	1.77	0	11	1	1	3.546	1.0911	1.8043	4.5339	4.2057	-3.5619	4.9025	7.464	4.387	3.3552	6.4131	-6.7837	-5.3149	-3.2935	7.6721	0.2123	12.024	2.3388	-2.4082	-6.1796	2.5255	0.2037	0.477	0.3846	0.325	0.2663	0.2338	0.2962	0.5121	0.3458	0.404	0.3491	0.2147	0.4871	0.3535	0.2503	0.4906	0.2026	0.2502	0.2889	6.3355	1.4708	5.0305	2	47	1.26582020765202	1	0
"48"	2	68	1	1	1.77	0	3	1	1	0.985	5.3803	5.0049	1.3516	-0.6547	9.4534	4.8417	-3.0153	-2.4648	-2.6113	-1.9342	-2.1137	-3.2616	-4.6945	-3.0997	11.2225	1.6961	10.3441	6.7684	1.7146	3.0136	0.3778	0.3085	0.4702	0.3128	0.2595	0.4515	0.3488	0.2464	0.3526	0.3153	0.2199	0.486	0.3267	0.2117	0.4431	0.2402	0.408	0.2014	0.3514	6.3315	1.5886	2.5687	2	48	-0.0151136378100482	1	0
"49"	2	55	1	2	3.54	0	4	1	1	1.242	7.2677	3.634	2.9732	8.6977	-0.4931	8.0906	1.7884	-0.1152	-2.4326	0.1713	-1.2502	10.9956	2.8539	-4.4129	1.5571	5.49	9.984	-2.7789	4.164	13.8872	0.405	0.4317	0.2413	0.3263	0.4158	0.4437	0.4886	0.253	0.3996	0.239	0.3233	0.3517	0.2617	0.3025	0.2194	0.3813	0.2302	0.3267	0.2848	6.3257	1.6998	2.9424	2	49	0.216722983511287	1	0
"50"	2	21	1	4	7.08	1	3	1	1	0.997	7.6101	7.0991	7.9145	7.6936	-1.6108	11.5798	15.3536	-3.1775	10.8569	9.8373	10.5423	11.0862	5.7756	3.5377	4.5932	15.9439	5.4743	1.8337	0.9721	8.5809	0.333	0.333	0.333	0.333	0.333	0.333	0.333	0.333	0.333	0.333	0.333	0.333	0.333	0.333	0.333	0.333	0.333	0.333	0.333	6.327	1.7067	2.698	2	50	-0.00300450902029872	1	0
"51"	2	12	1	1	1.77	0	3	1	1	0.994	4.7438	1.9287	3.4564	-1.7312	5.1721	-0.6125	2.7325	4.2583	6.9624	6.7473	7.9022	-1.9608	9.8574	5.643	-9.5241	-7.4788	-3.1244	2.9128	-1.4343	0.4304	0.326	0.2758	0.5285	0.2339	0.4099	0.2926	0.4706	0.2017	0.5029	0.2284	0.4393	0.251	0.3415	0.2183	0.246	0.4221	0.2125	0.4796	0.2403	6.3211	1.6194	2.6282	2	51	-0.00601807232556302	1	0
"52"	2	62	1	2	3.54	1	20	-1	0	7.348	7.4195	2.4004	1.5109	14.2571	-2.1055	11.6136	0.7862	-3.0577	6.2989	7.8938	-5.3465	7.9925	5.0389	2.0877	-1.6125	2.5282	4.9702	5.6084	4.7586	-1.5911	0.333	0.333	0.333	0.333	0.333	0.333	0.333	0.333	0.333	0.333	0.333	0.333	0.333	0.333	0.333	0.333	0.333	0.333	0.333	6.327	1.5183	8.8819	2	52	1.99442816735288	0	1
"53"	2	66	1	-1	-1.77	0	4	-1	1	1.187	-3.627	1.3171	-0.3349	-6.6498	0.583	-7.3004	5.321	4.045	-5.2558	1.4638	3.0997	-9.3627	-4.7798	0.3863	5.1124	-2.4659	-12.2879	1.8799	-0.597	-5.7198	0.4039	0.2112	0.4224	0.4958	0.2171	0.5318	0.2932	0.4115	0.3613	0.2473	0.3278	0.2656	0.4324	0.2824	0.2305	0.2018	0.5154	0.2241	0.2561	6.3316	1.4668	2.6714	2	53	0.171429115627531	0	1
"54"	2	70	1	4	7.08	0	12	1	1	3.675	11.402	3.9257	8.4799	7.8002	10.3745	7.6665	3.6821	5.6981	6.6071	8.2364	14.5471	4.4113	-0.1059	7.6846	13.9182	4.8854	7.7041	6.3578	14.6917	-6.3963	0.4446	0.3332	0.3689	0.2738	0.3416	0.287	0.4246	0.3602	0.2734	0.2263	0.3154	0.4483	0.2327	0.3416	0.3037	0.2138	0.2572	0.3899	0.4918	6.3282	1.5001	5.1927	2	54	1.3015531326648	1	0
"55"	2	53	1	0	0	0	5	1	0	1.407	-1.6475	3.7233	-1.2996	-4.7992	2.4803	-2.4713	12.1691	-2.872	-0.896	-10.8467	2.7895	8.2588	-1.3755	-6.5065	-2.8223	4.7374	-0.1018	3.487	0.2701	-0.8487	0.3804	0.2139	0.2915	0.4275	0.3579	0.3876	0.2784	0.2338	0.2971	0.3557	0.2942	0.3383	0.5119	0.2365	0.2032	0.4316	0.3541	0.4034	0.3345	6.3315	1.632	3.0408	2	55	0.341459778132252	1	0
"56"	2	38	1	-1	-1.77	0	8	1	0	2.529	-0.4083	3.9422	0.0242	1.8794	-6.0745	-6.5317	4.5113	8.1201	-3.3019	-7.4402	-9.9118	-7.3408	0.855	-2.3627	0.2468	-1.7856	-9.7528	-2.3921	4.1091	-1.9914	0.2439	0.2718	0.4579	0.2287	0.4433	0.5272	0.235	0.4456	0.3111	0.267	0.3384	0.2174	0.3029	0.3357	0.5044	0.2699	0.3838	0.2232	0.3153	6.3225	1.7068	4.2467	2	56	0.927823967687828	1	0
"57"	2	58	1	-2	-3.54	1	8	-1	1	2.588	-8.3281	10.8807	-0.4923	-7.9423	-4.1704	-7.2631	-5.5077	-8.4547	-4.4158	-6.764	-5.1271	-4.1357	-1.1215	-1.2277	-7.8758	-8.6131	0.1977	-4.4189	1.4555	3.4723	0.333	0.333	0.333	0.333	0.333	0.333	0.333	0.333	0.333	0.333	0.333	0.333	0.333	0.333	0.333	0.333	0.333	0.333	0.333	6.327	1.5778	4.172	2	57	0.950885376638654	0	1
"58"	2	25	1	0	0	0	14	1	1	4.341	1.943	1.2068	-0.4792	-4.0048	-1.262	-3.5127	-6.7311	1.5442	-0.0973	4.6677	-8.2612	10.6533	-6.8028	6.5441	2.9926	-3.4274	2.6579	7.7092	-2.9327	-2.9862	0.2336	0.4517	0.2211	0.2716	0.2054	0.3785	0.3273	0.4778	0.2041	0.2345	0.4187	0.4992	0.2318	0.3222	0.3761	0.4017	0.2435	0.304	0.5198	6.3229	1.606	5.9584	2	58	1.46810473631746	1	0
"59"	2	67	1	0	0	0	12	1	0	3.833	2.7183	2.5856	-6.0323	-2.2799	-2.6378	5.4644	-0.3132	4.163	0.8882	6.9665	-0.743	-7.1032	3.9128	7.8629	2.0315	-4.1302	-8.9903	-6.9646	5.4924	-2.2651	0.3573	0.5074	0.3845	0.2713	0.5035	0.2853	0.2411	0.3827	0.3571	0.2795	0.2161	0.3021	0.4248	0.2803	0.5023	0.2035	0.3149	0.272	0.2358	6.3218	1.4141	5.2499	2	59	1.34364778639842	1	0
"60"	2	28	1	4	7.08	0	7	1	1	2.267	6.9877	4.1339	3.3738	2.0861	7.9141	7.5576	0.4469	-1.2443	13.6398	5.5321	9.5498	7.8854	2.5808	15.4953	1.4306	9.957	7.7944	8.849	9.6184	18.3268	0.3707	0.4103	0.2941	0.4828	0.3	0.4081	0.2142	0.427	0.2543	0.3109	0.2523	0.4111	0.2152	0.2868	0.2617	0.3077	0.3975	0.4417	0.2882	6.3346	1.5955	3.8681	2	60	0.818457371525392	1	0
"61"	2	50	1	-4	-7.08	0	6	-1	1	1.652	-6.4099	-11.9643	-9.751	-10.7955	-3.8892	-4.5291	0.0892	-11.8092	-12.5198	-7.1472	-7.8725	-9.9824	-6.6724	2.8496	-2.8912	-4.1071	-13.8224	-0.9279	-3.0353	-15.0344	0.254	0.2181	0.2635	0.3002	0.411	0.2308	0.3172	0.2545	0.437	0.5209	0.4006	0.4291	0.277	0.3454	0.2832	0.3684	0.4152	0.3833	0.2148	6.3243	1.6994	3.3531	2	61	0.501986675098786	0	1
"62"	2	65	1	-2	-3.54	0	4	-1	1	1.49	-4.8967	-6.1117	-2.1009	-8.4462	-6.8438	-7.9115	-4.2023	-6.0445	11.5333	-8.2411	-2.411	0.8338	-12.5225	0.6026	-3.3739	-2.6669	0.3908	-4.0656	-1.1789	-4.2716	0.2452	0.4925	0.3633	0.4408	0.5311	0.289	0.3271	0.3006	0.4286	0.2706	0.3461	0.2477	0.2914	0.2083	0.3191	0.2776	0.3056	0.3906	0.2493	6.3244	1.4098	2.9245	2	62	0.398776119957368	0	1
"63"	2	43	1	-4	-7.08	1	3	-1	1	0.95	-6.2949	-10.8902	-11.2843	-3.0417	-9.1022	-0.6073	-0.7711	3.508	-8.1223	-10.9429	-3.7982	-1.2073	-3.7306	-12.4421	-11.6058	-13.5871	-6.8382	-8.9611	-5.2611	-14.6532	0.333	0.333	0.333	0.333	0.333	0.333	0.333	0.333	0.333	0.333	0.333	0.333	0.333	0.333	0.333	0.333	0.333	0.333	0.333	6.327	1.4568	2.417	2	63	-0.0512932943875506	0	1
"64"	2	14	1	4	7.08	0	4	1	1	0.981	5.3617	12.3383	-0.8475	12.8432	10.5177	3.3078	9.9473	0.1751	10.554	15.2029	9.5369	2.3967	12.2667	5.9893	8.6199	5.5349	-0.265	2.0499	3.1578	13.0474	0.28	0.2521	0.4477	0.2151	0.3377	0.2818	0.226	0.3832	0.4966	0.2896	0.3167	0.2436	0.3695	0.5163	0.2599	0.518	0.267	0.3807	0.2547	6.3363	1.4645	2.4651	2	64	-0.019182819416774	1	0
"65"	2	22	1	-4	-7.08	0	7	-1	1	2.694	-9.7114	2.4498	-7.8902	-1.7136	-4.6881	-16.3091	-3.75	-8.3452	-7.2431	-7.2856	-17.957	-7.3452	-4.7369	0.3866	-1.4997	-8.3987	-7.3132	-11.1139	-9.8439	-10.0201	0.4571	0.4843	0.4057	0.308	0.3651	0.4136	0.3007	0.2516	0.2255	0.2535	0.2902	0.4556	0.3491	0.2862	0.2322	0.3015	0.2002	0.4016	0.3535	6.3351	1.6418	4.3449	2	65	0.991027077988172	0	1
"66"	2	63	1	4	7.08	1	7	1	1	2.118	7.0423	8.016	8.759	16.4066	7.1448	8.6269	12.3245	8.6822	13.8379	14.0884	0.8206	7.1857	1.4405	2.2875	-0.6786	9.3733	3.3504	7.5123	7.0824	-2.4588	0.333	0.333	0.333	0.333	0.333	0.333	0.333	0.333	0.333	0.333	0.333	0.333	0.333	0.333	0.333	0.333	0.333	0.333	0.333	6.327	1.5338	3.6686	2	66	0.750472247179215	1	0
"67"	2	35	1	4	7.08	1	9	1	1	2.993	5.237	8.8685	-1.4233	8.9617	11.5016	7.3389	5.5703	12.0661	20.018	5.2367	5.2338	6.834	9.7134	12.4179	3.7521	0.2247	-0.2791	4.8933	6.8448	9.5233	0.333	0.333	0.333	0.333	0.333	0.333	0.333	0.333	0.333	0.333	0.333	0.333	0.333	0.333	0.333	0.333	0.333	0.333	0.333	6.327	1.7157	4.7273	2	67	1.09627622887056	1	0
"68"	2	59	1	-1	-1.77	1	6	1	0	1.758	0.276	-1.1424	-9.6382	9.9051	3.1566	-3.1512	-6.4673	5.2454	0.8833	-7.6754	-2.7007	-1.7093	-9.1023	-0.3875	0.3079	-6.5645	-0.4364	2.133	-7.1461	-3.1478	0.333	0.333	0.333	0.333	0.333	0.333	0.333	0.333	0.333	0.333	0.333	0.333	0.333	0.333	0.333	0.333	0.333	0.333	0.333	6.327	1.403	3.175	2	68	0.564176799262985	1	0
"69"	2	3	1	-1	-1.77	1	4	-1	1	1.101	2.0555	-0.5413	-4.5933	-6.4697	-11.0664	10.3694	-2.1881	-2.0875	5.1797	-3.6301	-8.2495	-6.0515	-2.7871	0.9397	2.0583	2.0147	-1.2131	-8.321	-2.7216	2.1575	0.333	0.333	0.333	0.333	0.333	0.333	0.333	0.333	0.333	0.333	0.333	0.333	0.333	0.333	0.333	0.333	0.333	0.333	0.333	6.327	1.537	2.6518	2	69	0.0962188577405429	0	1
"70"	2	24	1	-1	-1.77	0	3	-1	1	1.095	-0.9672	-10.4493	-7.3773	-5.6356	2.7169	1.2107	0.6589	2.3689	1.5098	3.0997	5.2164	-7.072	-0.8888	2.0444	-6.2827	-5.7682	-8.7651	-0.5136	-6.1146	6.5057	0.3377	0.3095	0.4639	0.3181	0.2184	0.3946	0.2656	0.3118	0.5182	0.2003	0.3183	0.2016	0.4116	0.2834	0.2149	0.3146	0.4366	0.4841	0.3296	6.3329	1.5871	2.6963	2	70	0.0907543632684641	0	1
"71"	2	32	2	0	0	1	4	1	1	1.169	2.1877	11.035	3.6465	2.7041	0.5239	-1.7869	-8.3949	-4.9578	2.7138	-4.1094	-1.2517	1.0746	4.3526	1.3718	-2.7956	-4.0585	-8.7213	5.4901	-2.3275	5.2553	0.333	0.333	0.333	0.333	0.333	0.333	0.333	0.333	0.333	0.333	0.333	0.333	0.333	0.333	0.333	0.333	0.333	0.333	0.333	6.327	1.6009	2.7697	2	71	0.156148682489931	1	0
"72"	2	35	2	4	7.08	1	3	1	1	0.822	5.8525	14.9492	10.6487	12.7481	-1.8066	0.5256	1.9657	10.7831	5.2451	7.7358	11.6035	2.1412	11.6531	6.7428	3.4206	14.0649	4.8444	3.2319	1.6479	12.6072	0.333	0.333	0.333	0.333	0.333	0.333	0.333	0.333	0.333	0.333	0.333	0.333	0.333	0.333	0.333	0.333	0.333	0.333	0.333	6.327	1.6449	2.4732	2	72	-0.196014883925957	1	0
"73"	2	21	2	4	7.08	1	3	1	1	0.85	7.1273	9.2031	1.7614	4.4065	10.5543	14.4962	8.0496	15.8125	3.8844	5.6672	2.6582	8.5628	14.5193	-0.9431	7.3068	4.5161	8.8235	11.6219	5.1421	-2.8402	0.333	0.333	0.333	0.333	0.333	0.333	0.333	0.333	0.333	0.333	0.333	0.333	0.333	0.333	0.333	0.333	0.333	0.333	0.333	6.327	1.6862	2.5505	2	73	-0.162518929497775	1	0
"74"	2	22	2	-4	-7.08	0	3	-1	1	0.968	-9.7015	1.173	-6.5537	-13.2099	-8.0677	-3.3869	-11.2476	-5.8078	-1.1465	-12.8738	-10.685	-2.9051	-3.9555	-3.642	-19.0288	-7.0296	-10.3476	-1.442	-4.688	-8.2724	0.3471	0.2594	0.368	0.4044	0.3446	0.4961	0.3473	0.2128	0.3102	0.2223	0.3074	0.2365	0.4652	0.3474	0.2492	0.4185	0.2679	0.4744	0.2459	6.3244	1.6499	2.6357	2	74	-0.0325231917055601	0	1
"75"	2	9	2	-2	-3.54	0	5	-1	1	1.677	0.1666	4.1321	-4.1243	-6.0607	-10.7545	-2.531	-8.4759	-2.0832	0.4998	-12.8933	1.7042	3.8592	1.6689	-5.6643	-2.3866	-5.4723	-4.4426	-10.0633	-9.2733	0.6853	0.2856	0.5015	0.2157	0.3586	0.3283	0.4432	0.2635	0.3365	0.4404	0.3091	0.2449	0.4833	0.3461	0.2677	0.4511	0.2798	0.2081	0.2344	0.323	6.3209	1.4287	3.1274	2	75	0.517006482841072	0	1
"76"	2	59	2	-1	-1.77	1	9	1	0	2.886	0.9616	-2.8493	0.3915	-0.8686	3.7464	-0.3327	7.0314	4.8204	-3.3251	-7.9991	-1.8311	-4.6988	-5.212	-12.7138	-0.1224	0.2038	-5.9783	-8.7577	4.9524	-2.8553	0.333	0.333	0.333	0.333	0.333	0.333	0.333	0.333	0.333	0.333	0.333	0.333	0.333	0.333	0.333	0.333	0.333	0.333	0.333	6.327	1.4311	4.3369	2	76	1.05987146035168	1	0
"77"	2	19	2	1	1.77	1	8	-1	0	2.393	5.9569	12.4171	3.0724	0.7932	-6.5867	4.9871	0.288	-1.0773	0.9512	-1.2276	2.6847	3.4571	9.9808	4.8084	-1.4922	1.4512	-2.2295	-5.8882	7.0828	-5.2983	0.333	0.333	0.333	0.333	0.333	0.333	0.333	0.333	0.333	0.333	0.333	0.333	0.333	0.333	0.333	0.333	0.333	0.333	0.333	6.327	1.5802	3.9933	2	77	0.872547808926236	0	1
"78"	2	45	2	-1	-1.77	1	6	-1	1	1.921	-5.8125	2.1606	1.8654	-12.5657	-5.398	-0.3183	4.0782	-0.1305	0.0628	-2.5775	-10.3949	4.6859	2.4801	-9.0139	-0.6675	-6.6506	1.2619	1.7533	-4.7007	3.7271	0.333	0.333	0.333	0.333	0.333	0.333	0.333	0.333	0.333	0.333	0.333	0.333	0.333	0.333	0.333	0.333	0.333	0.333	0.333	6.327	1.6373	3.5719	2	78	0.65284588378642	0	1
"79"	2	43	2	-4	-7.08	1	5	-1	1	1.344	-2.4026	-9.5827	-14.4701	0.2678	-15.0656	-0.6897	-0.6703	-5.4139	-17.8581	-9.3692	-8.6268	-10.881	-6.866	-6.5496	-5.2816	-6.0528	-8.5551	-2.5126	-2.9924	-9.6533	0.333	0.333	0.333	0.333	0.333	0.333	0.333	0.333	0.333	0.333	0.333	0.333	0.333	0.333	0.333	0.333	0.333	0.333	0.333	6.327	1.563	2.9116	2	79	0.295650242100958	0	1
"80"	2	66	2	-1	-1.77	0	10	-1	1	2.893	-5.1103	3.3523	4.0097	-2.8284	-1.5019	-4.4813	-0.3481	-2.274	7.0089	-3.7696	-10.0243	8.1422	-3.5124	-6.2601	-7.7358	-3.6614	-1.2265	-8.5326	-0.6002	4.7329	0.2421	0.3151	0.2441	0.333	0.5315	0.3395	0.2146	0.3582	0.2682	0.3905	0.2779	0.3502	0.4946	0.2237	0.4243	0.3547	0.4037	0.3302	0.2334	6.3296	1.5491	4.4437	2	80	1.062294025994	0	1
"81"	2	48	2	2	3.54	1	5	1	1	1.392	3.8642	11.7417	4.2877	8.0862	8.0339	7.1077	0.5746	6.7585	-1.7481	-4.2149	2.6191	2.9516	-1.181	10.7076	8.1288	1.4874	-7.8254	3.1708	3.323	4.2864	0.333	0.333	0.333	0.333	0.333	0.333	0.333	0.333	0.333	0.333	0.333	0.333	0.333	0.333	0.333	0.333	0.333	0.333	0.333	6.327	1.5103	2.9093	2	81	0.330741561912228	1	0
"82"	2	11	2	0	0	0	3	-1	1	1.07	-0.9084	-5.5575	-6.7265	3.1203	3.3135	3.162	-3.0988	-2.1305	1.6817	-7.065	-5.4706	4.244	-3.5972	3.7655	3.9676	1.8598	-6.411	12.0437	-1.3857	5.3042	0.5327	0.3912	0.256	0.3832	0.2832	0.4774	0.2286	0.4368	0.3962	0.2462	0.2931	0.4997	0.2594	0.3255	0.2332	0.3112	0.2237	0.295	0.2641	6.3362	1.5618	2.637	2	82	0.0676586484738149	0	1
"83"	2	70	2	4	7.08	0	8	1	1	2.497	9.5806	7.2644	14.2066	13.979	4.8074	4.3026	6.1636	3.815	0.7272	-0.8578	10.5282	16.0833	3.1388	2.0448	10.9046	6.2215	13.7985	8.4939	5.7501	0.6264	0.2409	0.4262	0.2066	0.4324	0.2338	0.4643	0.4342	0.2	0.3402	0.2576	0.2964	0.3803	0.2885	0.5237	0.2641	0.2004	0.3645	0.5044	0.2646	6.3231	1.7238	4.2311	2	83	0.915090011297636	1	0
"84"	2	12	2	1	1.77	0	4	-1	0	1.045	5.7859	0.6045	11.827	5.8508	-0.3711	8.8864	-0.0188	0.0189	8.4684	3.1491	3.9993	-5.3194	1.2719	1.1886	-2.7895	-5.1306	2.0233	-7.0374	-1.0936	6.0842	0.3108	0.4393	0.2359	0.3367	0.474	0.2211	0.3543	0.2129	0.4336	0.3042	0.2171	0.5126	0.4094	0.2024	0.3878	0.2258	0.4676	0.2034	0.3744	6.3231	1.575	2.6292	2	84	0.0440168854167743	0	1
"85"	2	3	2	-1	-1.77	1	3	-1	1	0.911	-1.3479	-6.8039	3.669	3.8019	-6.5598	0.7708	0.0486	3.2049	0.0399	-2.6058	-7.5488	-2.3184	-0.1033	5.7021	-3.5583	6.933	-11.2277	-1.2149	-8.6239	-6.1615	0.333	0.333	0.333	0.333	0.333	0.333	0.333	0.333	0.333	0.333	0.333	0.333	0.333	0.333	0.333	0.333	0.333	0.333	0.333	6.327	1.7309	2.6455	2	85	-0.0932123817221787	0	1
"86"	2	27	2	2	3.54	0	9	1	1	2.541	8.2021	8.1076	6.4223	-4.9641	4.2189	0.4304	4.6262	12.3685	5.1175	1.9809	-3.2349	-6.2352	3.1023	2.4468	8.8333	-2.3776	1.2012	7.0318	6.5958	7.9508	0.2727	0.3432	0.2636	0.2192	0.2754	0.4934	0.212	0.3813	0.2556	0.5085	0.288	0.4378	0.387	0.3009	0.2658	0.4604	0.2559	0.3141	0.401	6.3359	1.4983	4.0421	2	86	0.932557704338027	1	0
"87"	2	5	2	1	1.77	1	6	-1	0	1.709	-0.3389	9.318	11.2562	-6.1365	-1.1275	-10.4004	5.1539	1.8375	0.6516	3.1966	4.4054	-1.7964	4.0186	7.3317	2.1014	0.5063	3.3378	2.8061	1.393	-3.326	0.333	0.333	0.333	0.333	0.333	0.333	0.333	0.333	0.333	0.333	0.333	0.333	0.333	0.333	0.333	0.333	0.333	0.333	0.333	6.327	1.6362	3.3602	2	87	0.535908404133454	0	1
"88"	2	56	2	4	7.08	0	6	1	1	1.759	8.6442	3.3881	-2.1093	13.6187	7.6657	8.7565	5.0712	15.5783	4.2845	13.4859	13.531	6.4237	4.6726	10.2612	8.6282	-3.9494	6.7312	6.885	2.2452	7.0024	0.4206	0.243	0.4686	0.3291	0.2208	0.3736	0.2812	0.2247	0.3542	0.2437	0.2911	0.3871	0.2529	0.3543	0.259	0.5081	0.4669	0.3681	0.2891	6.3361	1.5186	3.2934	2	88	0.564745465755421	1	0
"89"	2	28	2	4	7.08	0	4	1	1	1.08	11.1253	17.0951	12.6158	-2.7138	1.6763	2.9365	13.686	7.9687	6.7903	0.9781	5.9779	10.8353	7.1299	10.4163	7.5898	2.1802	3.432	7.2979	10.0162	2.939	0.2749	0.2311	0.3254	0.2764	0.4132	0.5163	0.2032	0.3281	0.2582	0.2165	0.4716	0.2728	0.523	0.4853	0.2515	0.3218	0.2828	0.4242	0.2502	6.3265	1.6873	2.7811	2	89	0.0769610411361284	1	0
"90"	2	46	2	0	0	1	10	-1	1	3.154	-2.6439	-0.2279	-6.6351	2.4334	-2.0128	-5.2025	-0.827	2.7109	-5.5645	4.1049	-5.6982	4.39	3.3843	5.5628	12.3599	-2.4329	0.6617	0.5392	-7.844	4.2533	0.333	0.333	0.333	0.333	0.333	0.333	0.333	0.333	0.333	0.333	0.333	0.333	0.333	0.333	0.333	0.333	0.333	0.333	0.333	6.327	1.6221	4.7884	2	90	1.14867148854085	0	1
"91"	2	65	2	-2	-3.54	0	3	-1	1	0.841	-6.3697	-8.6888	3.6022	-3.3872	-7.911	-6.9265	-5.4075	-1.2713	-4.6277	-4.1327	-8.5072	-10.373	-9.337	4.338	-2.6687	4.5712	-4.6139	0.1424	6.3471	-4.2206	0.2778	0.448	0.4099	0.2288	0.2894	0.2538	0.3118	0.36	0.2028	0.381	0.3128	0.2684	0.3337	0.4464	0.2012	0.4343	0.4972	0.3506	0.3157	6.3236	1.7196	2.5754	2	91	-0.173163619009189	0	1
"92"	2	20	2	2	3.54	1	9	1	1	2.764	6.9038	4.9345	0.5595	2.6142	-5.6651	-1.7265	9.1779	-2.0526	-0.6804	1.44	5.0243	6.9678	3.8533	8.5816	4.9927	11.0327	-0.9335	12.6636	5.6591	-2.2112	0.333	0.333	0.333	0.333	0.333	0.333	0.333	0.333	0.333	0.333	0.333	0.333	0.333	0.333	0.333	0.333	0.333	0.333	0.333	6.327	1.6107	4.3811	2	92	1.01667890590542	1	0
"93"	2	36	2	-4	-7.08	0	4	-1	1	1.172	-5.0774	-6.589	-14.2103	-0.9073	-7.1861	-8.1091	-8.9905	-4.3967	-4.5234	-10.585	-2.9024	-7.1925	-5.3969	-12.9946	-2.2993	-19.7194	2.6188	-9.3627	-9.205	-4.871	0.4447	0.287	0.2055	0.2657	0.3825	0.4301	0.4676	0.2994	0.2602	0.3622	0.2401	0.4017	0.2553	0.4784	0.2942	0.2346	0.3572	0.4353	0.228	6.3297	1.4889	2.673	2	93	0.158711691154821	0	1
"94"	2	23	2	-2	-3.54	0	3	-1	1	0.934	-1.2958	-8.4275	-6.5969	-2.6945	-6.0097	-8.3184	-0.824	-14.8675	6.7086	-3.8041	2.6931	-5.3485	-6.7955	-8.9168	-0.0519	2.1303	-0.6589	0.1381	-4.2187	-2.4167	0.2232	0.4435	0.3465	0.2395	0.3004	0.5241	0.3793	0.3108	0.232	0.2934	0.4431	0.4013	0.2912	0.3335	0.3831	0.2671	0.3352	0.2067	0.3712	6.3249	1.4797	2.4179	2	94	-0.0682788407532944	0	1
"95"	2	6	2	2	3.54	1	5	1	1	1.493	3.4918	5.4106	5.6287	7.9048	6.5858	-11.1123	6.0047	-1.2399	8.0557	11.3619	2.0027	2.7663	0.586	3.9328	0.9892	1.9317	5.2013	-3.4303	8.606	6.2756	0.333	0.333	0.333	0.333	0.333	0.333	0.333	0.333	0.333	0.333	0.333	0.333	0.333	0.333	0.333	0.333	0.333	0.333	0.333	6.327	1.514	3.0107	2	95	0.400787518557053	1	0
"96"	2	61	2	1	1.77	1	3	-1	0	0.951	0.2971	-2.991	4.8246	-8.3893	0.8014	4.9607	-2.3519	-2.467	5.9925	9.5172	1.0898	4.0841	1.3402	7.4466	-1.1188	-3.4932	12.7768	0.1806	5.3294	-0.6707	0.333	0.333	0.333	0.333	0.333	0.333	0.333	0.333	0.333	0.333	0.333	0.333	0.333	0.333	0.333	0.333	0.333	0.333	0.333	6.327	1.5899	2.5516	2	96	-0.0502412164367468	0	1
"97"	2	8	2	-4	-7.08	0	4	-1	1	1.266	-7.3709	-8.4363	-3.2731	-7.045	-0.5924	-7.6472	-10.5969	-3.6885	-16.7025	-10.4099	-3.0464	-3.9774	1.4628	-3.6573	-14.2214	-13.2581	-8.2791	-14.6337	-2.2173	-3.7365	0.2785	0.5041	0.3798	0.3007	0.2545	0.4797	0.2921	0.3441	0.2114	0.3315	0.4542	0.3079	0.2418	0.2909	0.3328	0.27	0.3363	0.5066	0.2057	6.3226	1.6329	2.9004	2	97	0.235862323721984	0	1
"98"	2	58	2	-2	-3.54	1	5	-1	1	1.528	-6.5304	2.9621	-3.5718	-9.4579	0.8335	-4.2783	-11.3729	-3.6579	0.2731	-6.3253	-0.7204	-3.1012	-3.9444	-3.449	10.8858	-6.635	-10.1312	-4.2364	-1.8742	-7.136	0.333	0.333	0.333	0.333	0.333	0.333	0.333	0.333	0.333	0.333	0.333	0.333	0.333	0.333	0.333	0.333	0.333	0.333	0.333	6.327	1.5837	3.1124	2	98	0.423959690744329	0	1
"99"	2	39	2	0	0	0	3	-1	1	0.828	-0.7435	-6.9385	1.9015	0.0108	-2.4184	8.0649	-6.6832	-9.2036	7.9976	6.2617	3.063	-1.2686	6.6962	3.8869	-2.6462	-1.8363	-4.1235	-1.0535	-2.8994	2.8634	0.3407	0.3076	0.4271	0.2347	0.4498	0.2186	0.3193	0.4817	0.2336	0.2942	0.3834	0.2766	0.4714	0.4052	0.2239	0.2785	0.3519	0.3992	0.231	6.3286	1.5379	2.362	2	99	-0.188742124596877	0	1
"100"	2	4	2	0	0	1	4	-1	0	1.089	-0.4154	-2.3829	-4.7088	-1.6351	-2.5137	-2.9745	4.1747	-1.5164	10.2184	5.4658	3.8467	-1.633	-5.7009	7.6337	1.8679	-2.0443	-4.5158	2.7739	-11.0245	4.0833	0.333	0.333	0.333	0.333	0.333	0.333	0.333	0.333	0.333	0.333	0.333	0.333	0.333	0.333	0.333	0.333	0.333	0.333	0.333	6.327	1.6072	2.6896	2	100	0.0852598439508234	0	1
"101"	2	1	2	-4	-7.08	1	4	-1	1	1.241	-11.267	-7.1796	-9.07	-15.2622	-5.5935	-10.8512	-3.4054	-8.2905	-10.957	-10.3008	1.8211	-3.4229	-3.9013	-3.9806	-6.2755	-9.7459	-13.233	-12.6191	3.673	-1.2615	0.333	0.333	0.333	0.333	0.333	0.333	0.333	0.333	0.333	0.333	0.333	0.333	0.333	0.333	0.333	0.333	0.333	0.333	0.333	6.327	1.4448	2.6918	2	101	0.21591750622247	0	1
"102"	2	37	2	-2	-3.54	0	3	-1	1	1.082	-2.4814	-1.93	-14.5485	-0.9361	-8.2085	-0.3145	-1.8857	-3.582	-6.9359	-12.6858	1.1894	0.4047	-8.4851	-11.6503	-1.9574	-3.1545	1.4527	0.9473	1.4123	1.305	0.5222	0.3081	0.3353	0.4037	0.3098	0.2398	0.415	0.5212	0.2674	0.2924	0.3811	0.2929	0.3722	0.2322	0.2036	0.2755	0.4019	0.3515	0.2058	6.3317	1.4559	2.549	2	102	0.0788111804242898	0	1
"103"	2	18	2	0	0	1	6	-1	0	1.874	-0.0557	-6.1435	-6.1227	3.6616	1.9131	4.2669	-2.1768	-5.5616	5.4904	3.1928	-6.7734	2.007	-5.7435	-0.2725	-2.0889	9.9243	8.631	-1.214	-4.0203	0.9626	0.333	0.333	0.333	0.333	0.333	0.333	0.333	0.333	0.333	0.333	0.333	0.333	0.333	0.333	0.333	0.333	0.333	0.333	0.333	6.327	1.5903	3.4751	2	103	0.628075183816231	0	1
"104"	2	53	2	0	0	0	10	1	1	3.155	-0.1827	2.7722	-2.091	-2.6916	-6.115	3.6485	-4.3083	2.8175	11.959	-6.4933	1.923	6.0267	3.4926	-3.183	0.5235	6.3506	-7.1484	-6.7613	-2.0847	2.5591	0.2249	0.4819	0.3007	0.4017	0.3138	0.2355	0.4163	0.3514	0.2978	0.2047	0.3086	0.2158	0.4653	0.2395	0.2078	0.3458	0.4404	0.3899	0.4773	6.3189	1.5118	4.6726	2	104	1.14898849599318	1	0
"105"	2	64	2	-4	-7.08	0	6	-1	1	1.873	-4.9038	-13.6212	-2.1912	0.4957	-9.1104	-16.0409	-11.6196	-7.057	-7.7582	-4.4055	-9.8501	-9.9193	-12.3244	-2.267	-4.7524	1.6369	-0.8962	-12.9269	-11.2527	-3.5527	0.2829	0.2086	0.3548	0.4424	0.5009	0.2203	0.2488	0.4565	0.506	0.3294	0.2282	0.3637	0.2524	0.217	0.5001	0.3524	0.3098	0.3506	0.2001	6.325	1.6392	3.5241	2	105	0.627541423461951	0	1
"106"	2	24	2	-1	-1.77	0	6	1	0	2.089	-4.0995	-5.2715	-0.2522	3.1574	4.6501	0.395	-1.8817	-4.5948	-15.0022	4.5106	-2.6206	4.5494	-3.4907	-5.5853	-0.8524	2.0559	0.5213	0.7293	-9.6105	-4.3068	0.3789	0.3037	0.4854	0.408	0.3147	0.2352	0.4721	0.2019	0.3229	0.3514	0.2157	0.4804	0.2625	0.3706	0.2427	0.2699	0.2353	0.2929	0.4881	6.3323	1.6246	3.7233	2	106	0.736685482574429	1	0
"107"	2	49	2	4	7.08	1	3	1	1	0.812	9.1431	0.1256	6.9398	6.4232	5.8227	13.906	20.3435	0.9751	4.5381	5.59	10.5064	8.0755	-0.0564	4.2121	4.8906	13.9188	8.5987	4.9439	5.4948	6.3576	0.333	0.333	0.333	0.333	0.333	0.333	0.333	0.333	0.333	0.333	0.333	0.333	0.333	0.333	0.333	0.333	0.333	0.333	0.333	6.327	1.69	2.5132	2	107	-0.208254938820459	1	0
"108"	2	55	2	2	3.54	0	5	-1	0	1.645	4.0728	3.5523	10.3907	-5.4273	3.246	-3.7477	4.7631	6.9565	3.8638	9.6362	4.0957	9.1528	-2.4628	0.6089	11.6001	-1.6262	9.7909	-0.835	2.414	2.5095	0.226	0.3081	0.5015	0.3708	0.4986	0.266	0.2185	0.326	0.4909	0.2675	0.4658	0.2137	0.5225	0.4191	0.2222	0.3014	0.2002	0.2829	0.2326	6.3343	1.6266	3.2788	2	108	0.497740384217335	0	1
"109"	2	44	2	-2	-3.54	1	4	-1	1	1.111	-1.0321	-0.5878	-3.9948	-2.2756	-8.4653	-6.889	-3.0723	3.5008	-4.4791	-3.5373	4.4067	6.6589	-3.0253	-1.3035	-6.8042	0.6361	-11.5078	-8.9123	-11.8481	-6.858	0.333	0.333	0.333	0.333	0.333	0.333	0.333	0.333	0.333	0.333	0.333	0.333	0.333	0.333	0.333	0.333	0.333	0.333	0.333	6.327	1.6603	2.7779	2	109	0.105260510657493	0	1
"110"	2	40	2	1	1.77	0	3	-1	0	0.922	0.6756	2.0301	0.5414	-3.2885	-3.2722	7.5596	0.8572	1.6577	12.8505	-5.2013	8.4701	-4.652	-0.7407	1.4557	3.432	-0.1966	1.9351	-2.3439	10.7202	4.2306	0.4156	0.2508	0.4471	0.4857	0.3269	0.2602	0.4246	0.2573	0.362	0.2665	0.3993	0.2508	0.3514	0.4391	0.2303	0.4695	0.2005	0.2644	0.2339	6.3359	1.711	2.6399	2	110	-0.0812100554255432	0	1
"111"	2	34	2	2	3.54	1	5	1	1	1.512	-1.3191	6.2341	4.3744	5.5967	5.3007	2.9879	5.9999	6.1883	9.9557	-1.7957	-2.0063	9.3526	8.4243	8.4927	-5.4251	-3.2733	2.7628	5.679	9.1812	-4.11	0.333	0.333	0.333	0.333	0.333	0.333	0.333	0.333	0.333	0.333	0.333	0.333	0.333	0.333	0.333	0.333	0.333	0.333	0.333	6.327	1.6469	3.1631	2	111	0.413433277757341	1	0
"112"	2	7	2	4	7.08	1	3	1	1	0.932	8.0599	5.2065	4.4084	14.6909	4.3823	3.7246	2.4209	13.7655	10.7866	10.0788	1.912	8.6887	9.1704	0.7726	4.6315	18.1707	7.8559	5.4317	7.8779	-1.5243	0.333	0.333	0.333	0.333	0.333	0.333	0.333	0.333	0.333	0.333	0.333	0.333	0.333	0.333	0.333	0.333	0.333	0.333	0.333	6.327	1.4754	2.4161	2	112	-0.0704224642965458	1	0
"113"	2	67	2	0	0	0	4	-1	1	0.967	1.0416	-5.6685	-0.3008	-2.3533	-1.051	8.6841	-8.2881	5.4878	-2.5155	-4.7442	-1.9334	-3.1151	9.6699	5.4207	2.3394	-1.2893	7.2714	-1.7046	-5.464	-1.0647	0.2017	0.2821	0.4211	0.4922	0.3124	0.2015	0.2389	0.4759	0.4424	0.3851	0.2379	0.3571	0.2609	0.4903	0.2337	0.3761	0.2726	0.4001	0.2466	6.3287	1.4776	2.4508	2	113	-0.0335567835288428	0	1
"114"	2	51	2	-2	-3.54	0	3	-1	1	0.922	-2.877	-4.0182	-4.5768	-0.384	-10.6578	1.1132	-9.9922	-6.1143	-9.1298	3.6781	0.5947	-0.4068	-3.5839	-9.357	5.7705	-4.4112	-2.4502	2.4357	-4.0709	-11.9685	0.4342	0.3173	0.3872	0.2356	0.3019	0.4423	0.2333	0.3438	0.3948	0.4337	0.3025	0.3892	0.2938	0.2103	0.3752	0.4359	0.2534	0.3342	0.21	6.3287	1.4943	2.4229	2	114	-0.0812100554255432	0	1
"115"	2	63	2	4	7.08	1	6	1	1	1.775	11.1407	1.086	10.2769	10.8985	12.4197	-2.0979	10.5251	3.8993	8.6781	2.1661	17.7528	4.6135	9.4576	1.1674	8.567	14.5335	6.3304	1.7856	5.5673	4.6971	0.333	0.333	0.333	0.333	0.333	0.333	0.333	0.333	0.333	0.333	0.333	0.333	0.333	0.333	0.333	0.333	0.333	0.333	0.333	6.327	1.4457	3.2252	2	115	0.573800422927379	1	0
"116"	2	16	2	-2	-3.54	1	3	-1	1	0.873	-6.9251	-6.8504	-5.3209	-4.8091	6.5974	-1.0323	-3.7722	1.9771	-1.4643	-7.9599	-12.5539	-10.5891	-5.7152	4.5781	3.2436	-1.1838	-6.251	-0.7182	-6.5434	-4.3661	0.333	0.333	0.333	0.333	0.333	0.333	0.333	0.333	0.333	0.333	0.333	0.333	0.333	0.333	0.333	0.333	0.333	0.333	0.333	6.327	1.5076	2.3899	2	116	-0.135819723142535	0	1
"117"	2	17	2	-1	-1.77	1	3	-1	1	0.752	-5.7997	-6.3511	-7.2726	-5.5853	-3.9019	-4.2164	4.0949	1.0948	-1.9619	-0.9394	2.2537	4.8078	2.7274	1.8039	5.1132	-12.7673	-1.3177	-0.551	3.1557	-9.1158	0.333	0.333	0.333	0.333	0.333	0.333	0.333	0.333	0.333	0.333	0.333	0.333	0.333	0.333	0.333	0.333	0.333	0.333	0.333	6.327	1.5693	2.3362	2	117	-0.285018955032297	0	1
"118"	2	57	2	-4	-7.08	1	3	1	0	0.838	-2.2245	1.7333	-9.8308	-2.4256	0.1247	-13.8311	-15.1609	-8.5073	-9.1962	-4.0524	-2.6095	-11.5205	-13.648	-6.3173	-4.5002	-9.5524	-11.6594	-1.9483	-12.9987	-4.8079	0.333	0.333	0.333	0.333	0.333	0.333	0.333	0.333	0.333	0.333	0.333	0.333	0.333	0.333	0.333	0.333	0.333	0.333	0.333	6.327	1.417	2.2722	2	118	-0.176737178500054	1	0
"119"	2	30	2	-2	-3.54	1	3	1	0	0.964	0.5403	-3.8636	1.4044	-0.686	-2.0353	-12.689	-0.8339	-11.9653	-0.2864	-5.942	0.7707	-7.4432	-7.9725	-5.1068	-4.471	8.6652	-10.0669	-3.3319	-4.122	-3.0484	0.333	0.333	0.333	0.333	0.333	0.333	0.333	0.333	0.333	0.333	0.333	0.333	0.333	0.333	0.333	0.333	0.333	0.333	0.333	6.327	1.7309	2.7144	2	119	-0.0366639843715915	1	0
"120"	2	69	2	2	3.54	0	3	1	1	0.668	2.6708	-2.0397	10.1097	-1.5627	0.1924	2.6397	-3.0887	9.8689	-1.229	1.2584	11.3707	12.8186	3.939	6.4248	7.5624	3.444	2.8102	5.2048	-4.3828	3.7888	0.2481	0.3813	0.3014	0.382	0.2003	0.3177	0.3904	0.2521	0.3536	0.3041	0.4128	0.2246	0.3664	0.2828	0.2141	0.458	0.5263	0.2201	0.4977	6.3338	1.5352	2.2191	2	120	-0.403467105445491	1	0
"121"	2	29	2	-4	-7.08	1	3	-1	1	0.808	-8.4152	5.181	-13.0889	-7.8957	-12.1831	1.8757	-15.3854	-6.7174	-5.7644	-10.3462	-3.216	-8.4298	-8.2319	-12.514	-6.1662	-2.0805	-10.2212	-9.492	-3.003	-6.9938	0.333	0.333	0.333	0.333	0.333	0.333	0.333	0.333	0.333	0.333	0.333	0.333	0.333	0.333	0.333	0.333	0.333	0.333	0.333	6.327	1.4694	2.2923	2	121	-0.213193220461042	0	1
"122"	2	25	2	0	0	0	3	1	0	0.903	4.3899	5.0802	-0.6312	-0.9679	-4.0254	2.5343	5.4272	6.4317	-1.7554	-3.481	2.3912	-3.432	0.8835	2.4204	-0.9633	4.4142	-2.9217	-8.4541	6.2001	-11.913	0.3202	0.2661	0.4149	0.3095	0.2271	0.3759	0.2768	0.3729	0.2709	0.5028	0.2013	0.3472	0.4367	0.3172	0.2727	0.2022	0.4043	0.5244	0.2792	6.3221	1.4047	2.3201	2	122	-0.102032725565152	1	0
"123"	2	47	2	1	1.77	1	6	1	1	1.844	3.6791	5.163	1.2702	8.5649	3.4113	-6.0657	-3.5798	-3.8992	9.422	5.8527	7.493	-7.2697	3.9391	0.4938	4.5545	6.6947	1.0604	-4.8183	0.5567	-1.0939	0.333	0.333	0.333	0.333	0.333	0.333	0.333	0.333	0.333	0.333	0.333	0.333	0.333	0.333	0.333	0.333	0.333	0.333	0.333	6.327	1.5319	3.3778	2	123	0.611937125134402	1	0
"124"	2	26	2	1	1.77	0	7	1	1	2.141	-3.1026	-0.9175	7.7164	10.7081	11.035	3.6171	-4.3826	1.5741	0.1014	-2.6189	1.7004	2.5134	-5.6806	-0.2378	7.4243	-0.0171	-2.3523	2.5967	8.9075	-2.222	0.2508	0.2822	0.2116	0.5212	0.4033	0.2134	0.381	0.4671	0.2082	0.3829	0.4932	0.2612	0.3516	0.2109	0.5234	0.3637	0.3214	0.2002	0.2761	6.3236	1.4015	3.558	2	124	0.761273009607546	1	0
"125"	2	13	2	2	3.54	0	11	1	1	3.241	7.1343	-7.0219	6.9804	10.4566	8.5284	2.2829	5.5012	9.3663	2.5481	5.1561	6.5765	-2.4176	10.3	3.2613	4.9428	0.7241	4.373	-4.1352	-3.2622	-1.2965	0.3424	0.2653	0.309	0.447	0.2091	0.4069	0.2507	0.2855	0.2472	0.3466	0.2693	0.4279	0.4699	0.5044	0.2998	0.2233	0.4535	0.3127	0.2547	6.3252	1.6505	4.8919	2	125	1.17588192415941	1	0
"126"	2	42	2	4	7.08	0	14	1	1	4.798	12.0197	-6.0781	5.9591	2.0731	4.4544	8.9108	2.9922	10.7087	12.6073	11.3059	12.1863	9.4236	-0.2127	5.2883	7.2793	6.1628	12.6336	4.6076	13.023	7.4994	0.5296	0.4178	0.2225	0.2906	0.5015	0.3458	0.5243	0.2449	0.3049	0.2033	0.2649	0.4212	0.323	0.2254	0.3429	0.2284	0.2597	0.2046	0.466	6.3212	1.5412	6.3485	2	126	1.5681991644175	1	0
"127"	2	60	2	0	0	1	4	-1	1	1.106	-1.604	-4.8142	2.0704	0.3059	10.0445	1.9982	0.7017	0.9725	-2.7353	5.1225	-6.8895	-10.8206	0.5706	5.4415	3.5085	4.5138	-0.7253	-8.2903	1.1522	-0.3723	0.333	0.333	0.333	0.333	0.333	0.333	0.333	0.333	0.333	0.333	0.333	0.333	0.333	0.333	0.333	0.333	0.333	0.333	0.333	6.327	1.565	2.6735	2	127	0.100749903100143	0	1
"128"	2	50	2	-4	-7.08	0	4	-1	1	0.936	-4.5695	-6.5214	-16.4228	-8.895	-5.9991	-6.7421	-2.7872	-12.6779	-7.7451	-10.6576	-2.637	-3.5821	-0.8145	-15.2951	-5.2997	1.536	-16.0673	-3.3821	-9.0245	-3.2364	0.3607	0.2175	0.3164	0.2521	0.4446	0.2883	0.3854	0.2753	0.406	0.4983	0.5305	0.2945	0.338	0.2553	0.2241	0.256	0.4838	0.2787	0.2261	6.3316	1.4137	2.353	2	128	-0.0661398025045449	0	1
"129"	2	14	2	4	7.08	0	9	1	1	2.742	9.3403	6.7889	7.5907	12.218	10.5468	1.5059	3.8581	5.6026	-2.3429	6.6374	15.8461	0.514	4.5814	8.2516	10.5816	10.9851	11.45	-0.6915	13.8335	3.346	0.3764	0.4053	0.2449	0.2953	0.245	0.2957	0.4532	0.2921	0.466	0.4281	0.4641	0.2501	0.2878	0.2486	0.355	0.2233	0.5053	0.2739	0.2145	6.3247	1.4825	4.2261	2	129	1.00868758114012	1	0
"130"	2	41	2	2	3.54	0	10	-1	0	3.029	3.5161	9.8204	-4.0657	0.7397	-0.8375	6.7596	-2.1172	1.2088	1.8166	9.9572	3.2394	3.8472	1.8582	9.4132	15.8063	3.4129	5.3566	-3.461	4.2333	0.7684	0.2273	0.3657	0.2135	0.4515	0.2493	0.2875	0.2412	0.4936	0.3627	0.2211	0.511	0.2807	0.2193	0.494	0.2756	0.4655	0.2483	0.5212	0.2032	6.3323	1.6881	4.7304	2	130	1.1082325320451	0	1
"131"	2	33	2	1	1.77	1	6	-1	0	1.886	4.793	-1.5202	7.414	-0.1847	3.9299	8.2562	1.8657	3.507	3.2678	-2.8481	-2.4357	-8.8583	9.7988	0.055	-4.4169	2.2588	8.3602	5.4517	0.8095	-4.0578	0.333	0.333	0.333	0.333	0.333	0.333	0.333	0.333	0.333	0.333	0.333	0.333	0.333	0.333	0.333	0.333	0.333	0.333	0.333	6.327	1.5683	3.4702	2	131	0.634458184211266	0	1
"132"	2	2	2	-2	-3.54	1	9	-1	1	2.816	-1.9848	-12.8823	-4.1024	-3.9362	-3.4882	-2.7813	3.4983	-5.7357	-2.5117	-1.7397	-7.2175	-8.7346	5.5783	1.2591	-4.3482	5.8026	-1.6541	-7.3169	-11.2862	-7.9456	0.333	0.333	0.333	0.333	0.333	0.333	0.333	0.333	0.333	0.333	0.333	0.333	0.333	0.333	0.333	0.333	0.333	0.333	0.333	6.327	1.5773	4.3998	2	132	1.0353174382958	0	1
"133"	2	68	2	1	1.77	0	8	1	1	2.382	4.6432	0.2509	-1.1856	4.8131	-2.4241	6.1734	1.7038	1.1173	-0.7735	4.0011	-5.6566	11.5866	2.3423	10.369	-10.6277	1.3465	1.6196	0.4867	-0.1192	4.8153	0.3268	0.3798	0.4096	0.2052	0.2943	0.247	0.5145	0.3806	0.2249	0.4976	0.3538	0.2734	0.4537	0.2291	0.3028	0.4157	0.3127	0.2252	0.2739	6.3209	1.5472	3.9492	2	133	0.867940470933108	1	0
"134"	2	54	2	1	1.77	0	4	1	1	1.162	0.6587	4.0834	-5.8739	-0.1998	-1.7538	4.6214	3.1842	0.6322	4.3541	-6.1653	-0.2341	-0.6758	0.2008	-3.748	7.9431	8.8876	-1.7012	1.5337	13.6168	6.663	0.258	0.5193	0.2606	0.2172	0.4241	0.3889	0.4931	0.2413	0.4498	0.2202	0.2801	0.4382	0.3965	0.2081	0.2594	0.2252	0.2882	0.4385	0.3148	6.3214	1.5537	2.7293	2	134	0.150142658429719	1	0
"135"	2	15	2	-4	-7.08	1	8	-1	1	2.452	-10.9401	-3.7496	-12.0397	-8.7514	-1.45	-5.8037	-8.5236	4.0764	-2.4376	-7.8415	-14.7431	-2.2699	-6.3155	-4.4881	-8.5062	-7.9037	-8.4267	-7.374	-18.6542	-6.9617	0.333	0.333	0.333	0.333	0.333	0.333	0.333	0.333	0.333	0.333	0.333	0.333	0.333	0.333	0.333	0.333	0.333	0.333	0.333	6.327	1.6917	4.1523	2	135	0.896904018073965	0	1
"136"	2	62	2	2	3.54	1	7	1	1	2.284	4.7417	-0.8942	2.4495	4.5464	6.8866	4.6994	6.7552	-3.4068	-1.1832	17.7615	1.8359	3.9506	0.2249	-2.2369	5.0713	5.2215	-4.9888	7.4422	8.8655	4.3893	0.333	0.333	0.333	0.333	0.333	0.333	0.333	0.333	0.333	0.333	0.333	0.333	0.333	0.333	0.333	0.333	0.333	0.333	0.333	6.327	1.6393	3.9351	2	136	0.825928291793764	1	0
"137"	2	31	2	-1	-1.77	1	3	-1	1	0.831	-2.2335	-0.9387	9.157	-2.3182	1.5619	-2.2538	-4.935	4.2717	-8.4016	-6.9106	-5.5436	5.9046	3.1243	-3.0445	-0.4262	1.3347	-1.1356	-7.3201	-7.184	-9.9682	0.333	0.333	0.333	0.333	0.333	0.333	0.333	0.333	0.333	0.333	0.333	0.333	0.333	0.333	0.333	0.333	0.333	0.333	0.333	6.327	1.4189	2.2646	2	137	-0.185125484126689	0	1
"138"	2	10	2	-1	-1.77	0	4	-1	1	1.094	0.5434	-1.9538	-1.157	-5.5164	0.0509	-13.1069	5.2603	-4.5448	-1.1512	-1.6429	4.0477	-7.4951	-1.8574	-5.3074	5.0051	0.459	-4.8348	-7.616	7.1514	-2.1567	0.4205	0.2969	0.2162	0.3287	0.4077	0.4819	0.2281	0.2862	0.4514	0.2886	0.4514	0.3896	0.2253	0.3868	0.2442	0.3793	0.2121	0.2657	0.3692	6.3299	1.6285	2.7286	2	138	0.0898407039997895	0	1
"139"	2	52	2	-1	-1.77	0	4	-1	1	0.909	-4.1729	-4.0142	-5.5112	-4.402	-9.8864	0.2302	-3.2442	8.9431	-3.4316	2.9797	1.6151	-2.0908	-1.0654	-14.1444	3.452	0.6194	-1.0058	-1.8356	3.2545	-0.4266	0.2813	0.2346	0.3345	0.2743	0.4934	0.2512	0.3161	0.4433	0.2419	0.2156	0.4632	0.2974	0.4713	0.2945	0.4948	0.3111	0.2264	0.266	0.4135	6.3245	1.404	2.3262	2	139	-0.0954101848046582	0	1
"140"	2	38	2	-1	-1.77	0	3	-1	1	0.76	-0.8166	-0.2706	4.4648	0.2811	-6.8208	-1.4912	-0.7432	-4.2309	-1.6567	-3.1653	0.6675	-17.319	-2.7716	-4.6404	8.2125	-2.9873	2.4079	0.8037	0.3083	-5.991	0.277	0.4794	0.2397	0.2782	0.4398	0.2005	0.3872	0.2326	0.5025	0.2047	0.3211	0.3898	0.2663	0.4488	0.4944	0.2084	0.2746	0.4706	0.2096	6.3251	1.5151	2.2769	2	140	-0.27443684570176	0	1
"141"	2	17	3	-1	-1.77	1	4	1	0	1.298	0.3627	-1.6281	1.1237	-2.7413	-3.9659	4.6121	-1.5267	-6.8295	-0.3399	-5.878	-7.8389	5.6425	3.7106	1.3985	-3.8379	-4.0867	-3.8	-12.4319	7.9177	-5.4822	0.333	0.333	0.333	0.333	0.333	0.333	0.333	0.333	0.333	0.333	0.333	0.333	0.333	0.333	0.333	0.333	0.333	0.333	0.333	6.327	1.6953	2.9989	2	141	0.260824618281898	1	0
"142"	2	48	3	2	3.54	1	4	1	1	1.175	3.5845	-0.4834	9.196	8.8736	-4.746	9.2327	-2.3719	4.5746	-4.5472	3.3923	2.7429	0.8505	12.7431	1.3398	-0.7176	0.7563	9.9482	8.3761	7.3917	0.2179	0.333	0.333	0.333	0.333	0.333	0.333	0.333	0.333	0.333	0.333	0.333	0.333	0.333	0.333	0.333	0.333	0.333	0.333	0.333	6.327	1.5313	2.7255	2	142	0.161268147596122	1	0
"143"	2	15	3	-4	-7.08	1	2	-1	1	0.657	-9.4493	-6.7679	1.2004	-5.2963	-1.5101	-8.3762	-10.175	-11.7449	-6.2915	-7.327	-11.417	-7.4735	-6.4582	4.0396	-10.809	-16.0852	-14.0046	-7.7526	-6.0161	-0.2881	0.333	0.333	0.333	0.333	0.333	0.333	0.333	0.333	0.333	0.333	0.333	0.333	0.333	0.333	0.333	0.333	0.333	0.333	0.333	6.327	1.6482	2.3244	2	143	-0.420071260497527	0	1
"144"	2	13	3	2	3.54	0	3	1	1	0.662	4.0025	3.2732	2.0109	-3.4535	4.1338	8.7125	5.5984	3.7627	6.6107	-8.1924	13.7758	6.4703	6.9936	4.688	0.3733	-1.687	7.2329	5.8305	-3.122	3.9565	0.2464	0.353	0.2577	0.376	0.5206	0.2671	0.2001	0.4705	0.2326	0.4391	0.4753	0.2062	0.4929	0.4652	0.3003	0.2576	0.2177	0.2474	0.2939	6.3196	1.5283	2.2129	2	144	-0.412489723045129	1	0
"145"	2	33	3	1	1.77	1	3	-1	0	0.78	-1.1117	-6.4896	3.0864	8.2234	2.978	12.7992	-2.1471	-4.9033	3.1462	-2.3358	-2.171	0.5665	0.6078	-2.4858	1.205	10.9801	3.1237	5.3062	-1.7801	4.9513	0.333	0.333	0.333	0.333	0.333	0.333	0.333	0.333	0.333	0.333	0.333	0.333	0.333	0.333	0.333	0.333	0.333	0.333	0.333	6.327	1.4527	2.247	2	145	-0.2484613592985	0	1
"146"	2	40	3	1	1.77	0	7	-1	0	2.07	4.4709	-0.7871	-0.7584	-3.7149	5.5848	-0.1092	-7.5908	-2.6322	10.25	-6.9141	5.8721	4.1154	0.9795	1.6226	6.9167	1.2319	9.7859	-1.4292	6.5219	0.7784	0.2425	0.5223	0.2636	0.2996	0.4206	0.3142	0.2725	0.335	0.2041	0.3368	0.4199	0.3083	0.3771	0.437	0.3943	0.2955	0.4083	0.2075	0.2686	6.3277	1.4652	3.5534	2	146	0.727548607277278	0	1
"147"	2	68	3	1	1.77	0	4	1	1	1.36	-1.2505	8.7049	-1.8152	5.5553	2.4974	-4.6951	9.0326	-0.7306	5.2575	-1.9847	-3.0263	4.5146	-0.5496	0.805	8.1316	-0.0011	9.6477	-8.6238	-0.7781	4.6013	0.4662	0.3337	0.5031	0.3718	0.3107	0.236	0.3999	0.2072	0.4639	0.2306	0.2853	0.3551	0.3865	0.4151	0.3047	0.2474	0.2114	0.2393	0.3617	6.3295	1.6639	3.0279	2	147	0.307484699747961	1	0
"148"	2	59	3	-1	-1.77	1	3	-1	1	0.925	-3.8003	-2.7718	6.1786	-1.3295	-8.8255	5.2038	-4.8206	4.7801	-3.9489	-12.4824	3.5701	-1.7006	1.6147	-10.3177	-1.8402	-3.4772	0.6994	2.6164	-1.1298	-4.0102	0.333	0.333	0.333	0.333	0.333	0.333	0.333	0.333	0.333	0.333	0.333	0.333	0.333	0.333	0.333	0.333	0.333	0.333	0.333	6.327	1.6898	2.6255	2	148	-0.0779615414697118	0	1
"149"	2	2	3	-2	-3.54	1	3	-1	1	0.73	-4.7907	-10.5552	-0.3844	-6.0504	-4.6437	-5.8213	-1.9397	-6.2436	-3.8162	-8.2985	-1.4895	-6.4885	-2.9871	11.1378	-1.8545	-0.5357	4.1176	-10.3478	-5.7898	-4.0123	0.333	0.333	0.333	0.333	0.333	0.333	0.333	0.333	0.333	0.333	0.333	0.333	0.333	0.333	0.333	0.333	0.333	0.333	0.333	6.327	1.6588	2.3977	2	149	-0.3147107448397	0	1
"150"	2	30	3	-2	-3.54	1	3	-1	1	0.83	-3.613	4.0032	-8.0922	-3.6635	-2.8182	-4.2499	-8.2458	-2.0184	-6.0555	-7.1177	-5.1961	-1.8956	0.9422	-3.7309	-9.1414	5.3036	-7.9734	-4.3447	7.8777	-10.8925	0.333	0.333	0.333	0.333	0.333	0.333	0.333	0.333	0.333	0.333	0.333	0.333	0.333	0.333	0.333	0.333	0.333	0.333	0.333	6.327	1.5587	2.3978	2	150	-0.186329578191494	0	1
"151"	2	12	3	1	1.77	0	2	-1	0	0.542	0.2448	-2.7824	-0.1218	-3.4478	3.6611	0.1133	0.3268	9.8086	8.9406	-1.0448	2.4419	-6.7413	9.6996	4.9668	0.2139	-3.1671	7.3576	9.4666	-2.1769	-0.4091	0.4196	0.242	0.3389	0.3795	0.248	0.3269	0.3603	0.2148	0.3227	0.3762	0.2993	0.2044	0.452	0.4238	0.5067	0.2581	0.2892	0.2507	0.4157	6.3289	1.6478	2.1929	2	151	-0.612489277542491	0	1
"152"	2	26	3	1	1.77	0	4	1	1	1.074	2.6508	2.3689	-3.827	-0.4622	4.3823	1.1167	7.6965	-3.6438	3.3323	5.7344	-1.7175	-2.8047	5.2655	1.6385	-4.6087	5.6503	-2.5468	14.5234	-4.6029	6.0109	0.2954	0.2598	0.2282	0.3629	0.4487	0.2346	0.3182	0.2219	0.5021	0.3727	0.2259	0.4852	0.5157	0.3772	0.2378	0.2666	0.2128	0.4878	0.2697	6.323	1.5419	2.6244	2	152	0.071389996086673	1	0
"153"	2	37	3	-2	-3.54	0	3	-1	1	0.748	1.4282	-4.3497	-4.1345	4.3795	2.7188	-8.8544	-5.4837	-15.9507	-5.3953	-6.7991	-1.0061	-3.4986	-4.0436	3.7936	-1.5412	-4.3725	-8.7928	3.4736	-7.7122	-3.4887	0.2862	0.431	0.2955	0.4625	0.5182	0.3972	0.3647	0.2499	0.217	0.4913	0.2183	0.2996	0.2462	0.3687	0.2595	0.2265	0.3451	0.4011	0.2545	6.3328	1.7315	2.4824	2	153	-0.29035230100766	0	1
"154"	2	56	3	4	7.08	0	4	1	1	0.972	8.1601	16.0174	16.7202	0.3201	0.3904	3.4496	5.6491	5.1015	7.4348	7.0481	2.9292	5.0898	5.4342	13.1151	8.6333	7.1409	12.3771	13.9229	2.435	0.6091	0.3895	0.2581	0.2138	0.3076	0.4119	0.2237	0.3004	0.5232	0.3763	0.2028	0.3073	0.4765	0.316	0.4101	0.3355	0.3962	0.3315	0.2197	0.3321	6.3323	1.6011	2.5731	2	154	-0.028399474521698	1	0
"155"	2	50	3	-4	-7.08	0	4	-1	1	1.058	-9.7778	-7.8051	-3.9149	-4.4032	-0.9049	-9.037	-12.6338	-5.4664	-0.4979	-7.7874	-10.7369	2.6792	-3.8012	-10.5135	-14.1513	-5.3224	-7.9991	-15.9529	-1.6176	-11.8082	0.2347	0.4861	0.22	0.2747	0.4108	0.3648	0.2302	0.421	0.2308	0.5254	0.2324	0.3556	0.5138	0.2573	0.2997	0.3265	0.2501	0.426	0.2633	6.323	1.6014	2.6592	2	155	0.0563803334361077	0	1
"156"	2	67	3	0	0	0	3	-1	1	1.037	-0.6526	-1.9922	8.0182	6.121	-9.4467	-5.9467	1.9651	0.3275	-3.5525	-2.0378	1.9512	0.2746	-1.5729	10.3712	3.1173	-6.6504	3.9158	1.5578	-5.5528	1.2003	0.2954	0.4041	0.3493	0.3236	0.4861	0.414	0.2306	0.2925	0.4204	0.3513	0.2437	0.3392	0.2304	0.3186	0.2508	0.3633	0.2502	0.3969	0.363	6.3235	1.4498	2.4875	2	156	0.0363319292473902	0	1
"157"	2	63	3	4	7.08	1	3	1	1	0.88	9.8509	6.6766	1.9469	4.4756	19.1502	15.19	5.838	1.8666	1.1434	7.5047	4.7052	10.7126	1.926	11.8972	11.079	7.3457	8.4326	2.9814	9.7017	0.242	0.333	0.333	0.333	0.333	0.333	0.333	0.333	0.333	0.333	0.333	0.333	0.333	0.333	0.333	0.333	0.333	0.333	0.333	0.333	6.327	1.464	2.3476	2	157	-0.127833371509885	1	0
"158"	2	18	3	0	0	1	3	1	1	0.748	1.9647	-5.3332	1.0657	2.8976	11.2913	-4.5191	0.4404	0.1946	-3.9084	8.7578	-5.9988	-8.36	-3.1225	-5.5042	2.5714	-3.6024	-1.2189	3.4036	4.2261	3.2881	0.333	0.333	0.333	0.333	0.333	0.333	0.333	0.333	0.333	0.333	0.333	0.333	0.333	0.333	0.333	0.333	0.333	0.333	0.333	6.327	1.5706	2.3149	2	158	-0.29035230100766	1	0
"159"	2	43	3	-4	-7.08	1	2	-1	1	0.638	-8.44	-7.4543	-12.841	-2.3026	-11.0782	7.0851	-8.2028	-11.2491	-12.5313	-1.7715	-7.2718	-4.8156	-12.7035	-8.646	-13.1612	-1.8634	-5.9798	-4.0994	-7.0399	-8.7868	0.333	0.333	0.333	0.333	0.333	0.333	0.333	0.333	0.333	0.333	0.333	0.333	0.333	0.333	0.333	0.333	0.333	0.333	0.333	6.327	1.6901	2.3393	2	159	-0.449416995637347	0	1
"160"	2	47	3	1	1.77	1	3	1	1	0.933	1.433	-0.7558	3.9648	-0.3717	1.4608	-1.8777	8.6539	-1.432	-4.6951	-0.8149	-1.8695	5.0542	4.5537	7.5187	-7.9773	-2.3381	7.775	-2.3635	7.8953	10.7486	0.333	0.333	0.333	0.333	0.333	0.333	0.333	0.333	0.333	0.333	0.333	0.333	0.333	0.333	0.333	0.333	0.333	0.333	0.333	6.327	1.4743	2.417	2	160	-0.0693500781347932	1	0
"161"	2	31	3	-1	-1.77	1	3	-1	1	0.718	-1.0689	-11.2676	12.0569	-0.6865	-3.4385	-0.9281	-8.1261	-0.8389	-3.8951	-0.1029	0.1561	5.5947	-7.3013	-1.8846	-2.8064	2.2453	-0.1903	-6.392	-0.7326	-6.5041	0.333	0.333	0.333	0.333	0.333	0.333	0.333	0.333	0.333	0.333	0.333	0.333	0.333	0.333	0.333	0.333	0.333	0.333	0.333	6.327	1.5448	2.2858	2	161	-0.331285709933913	0	1
"162"	2	57	3	-4	-7.08	1	2	-1	1	0.656	-9.7362	-3.793	-16.3446	-1.1969	2.4718	-6.8422	-4.051	-6.4648	-7.9173	-9.0581	2.4984	-4.6304	-8.3885	-14.0671	-4.9611	-14.6022	-6.6865	-5.5886	-9.8927	-10.7797	0.333	0.333	0.333	0.333	0.333	0.333	0.333	0.333	0.333	0.333	0.333	0.333	0.333	0.333	0.333	0.333	0.333	0.333	0.333	6.327	1.489	2.1569	2	162	-0.421594490038048	0	1
"163"	2	35	3	4	7.08	1	5	1	1	1.533	9.2664	7.4038	7.3431	10.09	7.9425	10.3827	-3.4082	8.8454	12.0489	0.3249	8.5082	5.497	1.1282	10.2796	9.7982	5.4498	12.8224	13.0869	-5.1841	8.0784	0.333	0.333	0.333	0.333	0.333	0.333	0.333	0.333	0.333	0.333	0.333	0.333	0.333	0.333	0.333	0.333	0.333	0.333	0.333	6.327	1.4819	3.0335	2	163	0.427226599889677	1	0
"164"	2	55	3	2	3.54	0	8	1	1	2.256	5.9573	6.327	1.2299	-8.8596	5.2395	5.974	4.6298	0.2075	4.4879	1.5619	4.7738	4.8381	4.8076	-4.6865	8.1541	-5.2318	6.0614	7.6798	10.8343	7.5897	0.4179	0.2127	0.2478	0.5089	0.2651	0.3587	0.2012	0.2969	0.2169	0.3847	0.2743	0.4341	0.3642	0.466	0.2584	0.3033	0.2664	0.3523	0.5041	6.3337	1.5349	3.8067	2	164	0.813593333635812	1	0
"165"	2	44	3	-2	-3.54	1	4	-1	1	1.08	-6.7592	-3.417	-0.2705	5.0271	-0.7385	-4.7248	-0.4738	0.4145	-11.8024	-9.3388	1.837	0.9724	-3.4272	0.5915	-2.1971	0.5686	-9.0562	-6.4415	-11.0835	-10.7903	0.333	0.333	0.333	0.333	0.333	0.333	0.333	0.333	0.333	0.333	0.333	0.333	0.333	0.333	0.333	0.333	0.333	0.333	0.333	6.327	1.4921	2.5802	2	165	0.0769610411361284	0	1
"166"	2	25	3	0	0	0	3	-1	0	0.845	-1.4916	1.9571	-4.0361	-5.9942	-3.1853	-5.4833	9.5325	6.0368	2.8041	7.8395	7.2459	3.0765	-4.5123	-1.1021	-5.7371	-1.056	-1.0209	-0.8984	-7.3114	3.3726	0.3537	0.4394	0.5187	0.2018	0.4271	0.3506	0.2031	0.3497	0.3236	0.2768	0.3494	0.3107	0.4219	0.24	0.2715	0.2322	0.2025	0.4496	0.3986	6.3209	1.6985	2.5458	2	166	-0.168418651624963	0	1
"167"	2	69	3	2	3.54	0	3	1	1	0.794	6.0953	7.0815	15.6063	-1.1422	5.6903	3.062	4.2208	1.8986	1.6885	-2.735	-2.685	-0.9453	7.1886	0.9163	1.5156	3.4779	-3.9376	4.4174	12.559	4.9621	0.2083	0.2372	0.3699	0.2214	0.4144	0.2236	0.3978	0.5138	0.301	0.2638	0.3684	0.3033	0.3319	0.4728	0.2648	0.3058	0.41	0.2203	0.5052	6.3335	1.4108	2.2118	2	167	-0.230671817735001	1	0
"168"	2	20	3	2	3.54	1	3	-1	0	0.784	3.8733	0.4682	1.8996	3.1242	2.5475	-3.308	-3.1883	2.3495	3.0696	6.5601	4.3437	14.5398	3.3398	-3.1756	3.0131	11.6329	7.4612	12.5905	1.0899	-0.538	0.333	0.333	0.333	0.333	0.333	0.333	0.333	0.333	0.333	0.333	0.333	0.333	0.333	0.333	0.333	0.333	0.333	0.333	0.333	6.327	1.6046	2.4019	2	168	-0.243346258631729	0	1
"169"	2	16	3	-2	-3.54	1	2	-1	1	0.664	-2.2726	-14.2725	-6.8725	-0.3425	3.7908	-7.4283	-4.2172	1.3881	-5.26	-1.376	-0.1733	-8.8079	6.4258	-4.9644	-4.1103	-12.1691	1.4881	-3.9705	-3.483	-6.014	0.333	0.333	0.333	0.333	0.333	0.333	0.333	0.333	0.333	0.333	0.333	0.333	0.333	0.333	0.333	0.333	0.333	0.333	0.333	6.327	1.5358	2.1984	2	169	-0.409473129505703	0	1
"170"	2	64	3	-4	-7.08	0	2	-1	1	0.688	-6.7746	-2.3852	-2.2131	-7.0741	-5.6933	-5.7492	-3.2327	-8.9451	-8.4293	4.8551	-13.2191	-10.5126	-12.5926	-13.3625	-1.8079	-8.8115	-0.3063	-10.6844	-7.6401	-15.0638	0.3899	0.4162	0.4574	0.213	0.4389	0.2015	0.394	0.2708	0.2217	0.3956	0.2631	0.5014	0.2323	0.2853	0.2051	0.3308	0.3633	0.3095	0.4425	6.3324	1.4839	2.1719	2	170	-0.373966441048793	0	1
"171"	2	28	3	4	7.08	0	2	1	1	0.706	9.1452	5.3772	7.2203	6.4347	6.6796	-3.4104	15.3538	-2.8077	-0.8231	11.508	3.9165	12.4667	7.9553	4.6527	10.3096	11.5609	10.2729	10.5032	10.0988	6.5086	0.3257	0.4145	0.314	0.2108	0.2949	0.2239	0.3054	0.4451	0.3854	0.4369	0.321	0.2878	0.4543	0.4168	0.2916	0.2151	0.463	0.2874	0.2265	6.3202	1.5772	2.2905	2	171	-0.348140041488895	1	0
"172"	2	7	3	4	7.08	1	2	1	1	0.579	9.6387	1.8841	6.7952	-2.4714	9.8806	7.2529	5.0954	13.8691	8.3294	-2.8731	12.4	3.9377	4.9156	11.096	12.8649	2.4578	10.244	14.8169	8.5982	4.7867	0.333	0.333	0.333	0.333	0.333	0.333	0.333	0.333	0.333	0.333	0.333	0.333	0.333	0.333	0.333	0.333	0.333	0.333	0.333	6.327	1.4856	2.0632	2	172	-0.546452801409142	1	0
"173"	2	8	3	-4	-7.08	0	3	-1	1	0.864	-9.2487	0.1271	-10.2681	-16.115	-6.2237	-2.353	-8.2679	-6.6731	-3.4633	-8.7768	-4.4994	-6.2884	1.1709	-3.1426	-7.2388	-3.8985	-15.1786	-7.829	-17.4607	-7.7702	0.2717	0.3293	0.3701	0.2523	0.21	0.3318	0.2649	0.2961	0.4177	0.3077	0.4621	0.3566	0.2133	0.4664	0.4185	0.2352	0.2751	0.3519	0.5002	6.3309	1.5206	2.3816	2	173	-0.146182510178081	0	1
"174"	2	46	3	0	0	1	4	-1	0	1.007	-2.2124	0.7075	-8.0808	8.3299	6.7911	-0.853	-1.6773	3.0871	-5.0718	7.4745	-0.8916	-1.835	-4.5658	6.6053	-6.2123	3.9857	1.3672	4.7651	-2.6886	-7.0564	0.333	0.333	0.333	0.333	0.333	0.333	0.333	0.333	0.333	0.333	0.333	0.333	0.333	0.333	0.333	0.333	0.333	0.333	0.333	6.327	1.7168	2.7241	2	174	0.00697561373642514	0	1
"175"	2	54	3	1	1.77	0	6	-1	0	2.009	1.0393	8.9879	4.8963	5.9903	2.4825	-3.5632	-1.9139	5.9344	-0.0617	-1.4317	-2.8438	6.9362	6.2658	-11.8559	3.0924	-1.1741	-1.1698	4.7484	5.9126	4.7781	0.5042	0.4556	0.2043	0.2548	0.2928	0.3403	0.2	0.2625	0.3142	0.2303	0.3812	0.4768	0.2702	0.3288	0.4678	0.2441	0.4017	0.3188	0.3709	6.3193	1.6977	3.7094	2	175	0.697637085832797	0	1
"176"	2	1	3	-4	-7.08	1	10	-1	1	3.098	-4.5349	-5.1335	-8.7338	-2.1812	-4.3299	1.348	-5.4071	-4.4998	-6.2107	-3.3116	-20.7911	-3.6748	-7.1451	-11.7133	-7.6191	-8.0176	-14.912	-9.0082	-4.2454	-12.4688	0.333	0.333	0.333	0.333	0.333	0.333	0.333	0.333	0.333	0.333	0.333	0.333	0.333	0.333	0.333	0.333	0.333	0.333	0.333	6.327	1.4401	4.5489	2	176	1.13075674199468	0	1
"177"	2	3	3	-1	-1.77	1	4	-1	1	1.127	1.7869	-0.8074	2.4397	1.1614	-5.3023	6.48	-1.7497	-6.4273	-3.15	-0.5741	-1.5295	-8.2153	2.3033	0.6635	3.8902	-12.9867	0.1377	3.2022	-6.6531	-8.6415	0.333	0.333	0.333	0.333	0.333	0.333	0.333	0.333	0.333	0.333	0.333	0.333	0.333	0.333	0.333	0.333	0.333	0.333	0.333	6.327	1.6064	2.7448	2	177	0.119559235057639	0	1
"178"	2	61	3	1	1.77	1	3	-1	0	0.918	0.3075	4.7524	4.2509	-3.4675	-0.54	2.2775	-4.7233	9.0948	1.1116	3.2723	8.5585	-5.9305	3.7323	-4.5697	10.2687	8.7643	0.2675	-1.2775	-4.6455	1.9545	0.333	0.333	0.333	0.333	0.333	0.333	0.333	0.333	0.333	0.333	0.333	0.333	0.333	0.333	0.333	0.333	0.333	0.333	0.333	6.327	1.5382	2.4687	2	178	-0.0855578883616465	0	1
"179"	2	23	3	-2	-3.54	0	3	-1	1	0.814	0.1363	0.5759	-2.5725	1.7286	-0.7026	-8.6992	8.0956	-12.806	-5.0298	-5.968	-6.8421	-4.848	-2.7424	-11.0607	1.3304	-4.2994	1.5828	-5.9741	-4.7484	-7.6468	0.2276	0.5031	0.4531	0.3299	0.2134	0.2947	0.3657	0.2017	0.246	0.3105	0.356	0.2851	0.3572	0.2817	0.3305	0.5214	0.2106	0.3368	0.4921	6.3172	1.616	2.4477	2	179	-0.205794912979597	0	1
"180"	2	53	3	0	0	0	4	-1	1	0.981	-2.818	-8.5331	-3.2456	6.0275	-0.9286	7.4039	5.3397	1.4276	1.2583	2.9622	-4.7926	-3.6915	2.9447	-1.2187	-6.5759	9.9491	-6.8409	0.1501	2.6053	0.0434	0.3728	0.2596	0.2015	0.2961	0.2635	0.2175	0.2615	0.2005	0.3198	0.4286	0.5065	0.3115	0.4271	0.2149	0.4858	0.2887	0.5001	0.3366	0.4423	6.3352	1.4649	2.4647	2	180	-0.019182819416774	0	1
"181"	2	36	3	-4	-7.08	0	4	-1	1	0.922	-5.1561	-1.8081	-2.9168	-12.775	-9.4329	-4.6592	-17.2446	-1.5672	-8.8247	0.6576	-6.2662	-14.9523	-7.6516	-7.5072	-0.684	-1.8574	-6.934	-11.844	-7.5529	-13.9044	0.3061	0.3454	0.2194	0.3307	0.2408	0.4119	0.2224	0.4509	0.3196	0.2484	0.5017	0.2482	0.2131	0.246	0.5182	0.4103	0.4379	0.2908	0.3707	6.3326	1.5545	2.4891	2	181	-0.0812100554255432	0	1
"182"	2	70	3	4	7.08	0	3	1	1	1.026	7.5297	5.3252	12.1166	13.6122	7.8212	7.7065	2.2488	11.4899	-5.8159	10.1751	1.5854	9.389	12.4932	3.5379	6.5211	10.4485	8.8409	3.29	13.3911	1.252	0.219	0.341	0.4881	0.383	0.2561	0.3632	0.2849	0.3944	0.324	0.2691	0.2349	0.2004	0.3253	0.2365	0.449	0.326	0.217	0.521	0.4931	6.3261	1.4733	2.5104	2	182	0.0256677467485778	1	0
"183"	2	27	3	2	3.54	0	3	1	1	0.796	4.4472	12.3583	15.5244	7.0796	0.5965	2.988	-4.0578	3.4808	2.753	-0.9209	9.6334	2.2152	2.4716	2.9303	1.9982	1.5601	-7.2129	5.8844	3.297	4.0912	0.2512	0.2205	0.4027	0.3405	0.2742	0.2211	0.3517	0.2961	0.2166	0.4882	0.445	0.3694	0.2634	0.5299	0.3081	0.5122	0.3672	0.2536	0.2126	6.3242	1.6266	2.4297	2	183	-0.228156093137754	1	0
"184"	2	32	3	0	0	1	3	-1	1	0.95	4.9874	-2.758	2.4508	-6.7936	-7.5575	6.8877	-1.7597	-4.1292	2.8623	2.7067	4.6223	1.5368	-1.0199	5.8608	-6.4047	1.892	-4.5525	-2.5213	-6.6125	8.5202	0.333	0.333	0.333	0.333	0.333	0.333	0.333	0.333	0.333	0.333	0.333	0.333	0.333	0.333	0.333	0.333	0.333	0.333	0.333	6.327	1.5364	2.5012	2	184	-0.0512932943875506	0	1
"185"	2	24	3	-1	-1.77	0	4	-1	1	0.893	-2.5897	-3.1426	0.5971	1.0087	-0.4395	5.3346	3.2778	-4.6743	-3.8495	-0.4861	1.8239	-6.8406	1.4885	-6.5433	2.7559	-0.5076	-11.4271	7.4831	-11.2918	-6.2069	0.2783	0.2235	0.2963	0.2457	0.2139	0.4907	0.2865	0.3635	0.201	0.3616	0.4827	0.2757	0.2504	0.332	0.2275	0.398	0.5068	0.4774	0.4176	6.3289	1.4243	2.3272	2	185	-0.113168698105638	0	1
"186"	2	34	3	2	3.54	1	5	1	1	1.524	6.4254	3.0142	6.7643	-3.5031	2.1254	7.8157	1.867	-0.2292	6.8184	10.9597	2.9303	5.2612	8.2432	-5.1315	1.4226	6.5987	-1.2476	2.1094	-4.0409	13.3412	0.333	0.333	0.333	0.333	0.333	0.333	0.333	0.333	0.333	0.333	0.333	0.333	0.333	0.333	0.333	0.333	0.333	0.333	0.333	6.327	1.4597	2.9912	2	186	0.421338457264455	1	0
"187"	2	51	3	-2	-3.54	0	2	-1	1	0.73	-0.4827	1.8772	-4.7355	-7.1074	-7.2834	-4.5961	-5.0544	-4.2062	-4.5117	-0.0183	-1.652	-12.6097	-6.5702	-1.666	-10.0671	3.2183	-4.5081	-9.5354	8.6694	0.8074	0.4974	0.2691	0.2379	0.2639	0.3384	0.4182	0.2244	0.456	0.2915	0.3635	0.398	0.2874	0.3611	0.2543	0.3036	0.3623	0.326	0.245	0.4302	6.3283	1.4052	2.1474	2	187	-0.3147107448397	0	1
"188"	2	58	3	-2	-3.54	1	2	-1	1	0.606	-3.6028	-1.196	-6.2371	1.7575	-3.6385	-3.3188	-7.7727	-11.2041	-4.7453	-3.9112	2.3889	3.7536	-3.226	-9.3501	-8.5128	5.4564	3.1622	-4.9357	-13.1789	-3.2037	0.333	0.333	0.333	0.333	0.333	0.333	0.333	0.333	0.333	0.333	0.333	0.333	0.333	0.333	0.333	0.333	0.333	0.333	0.333	6.327	1.7022	2.307	2	188	-0.500875292912823	0	1
"189"	2	22	3	-4	-7.08	0	3	-1	1	0.691	-5.0228	-1.9659	-5.2032	-10.6634	-14.9714	-12.1926	-12.0286	-10.1167	-6.0944	-6.8778	-11.5933	4.1957	-6.7326	-5.2186	-13.8852	0.2652	-3.707	-5.5975	-11.6074	-2.6463	0.2824	0.3529	0.2774	0.4284	0.3285	0.2552	0.4103	0.3845	0.2991	0.4002	0.346	0.488	0.2177	0.3635	0.2413	0.2665	0.3963	0.2339	0.3475	6.3196	1.6432	2.3423	2	189	-0.369615455214467	0	1
"190"	2	10	3	-1	-1.77	0	3	-1	1	0.704	-0.7037	-0.2686	-0.3019	-0.8672	-4.0205	-7.3889	6.2541	3.4879	-3.4188	5.3286	2.0806	-4.7284	-8.2692	-6.4974	-6.7696	5.8502	-3.4304	4.7287	-4.2408	-10.4591	0.3802	0.2445	0.278	0.2291	0.3007	0.336	0.2439	0.3007	0.2133	0.2504	0.4582	0.2699	0.4216	0.4673	0.4282	0.4794	0.3146	0.3986	0.3197	6.3341	1.6764	2.3883	2	190	-0.350976922824095	0	1
"191"	2	42	3	4	7.08	0	1	-1	0	0.279	12.0162	7.4951	-0.9063	11.0643	9.9722	15.2311	3.211	6.8352	8.3003	5.6498	0.2666	10.1807	0.7686	10.0698	13.0032	1.2239	1.2487	2.7923	10.4158	14.2099	0.4209	0.2103	0.3802	0.2484	0.3274	0.2701	0.5087	0.2961	0.2579	0.3478	0.4088	0.2132	0.356	0.3003	0.3789	0.4432	0.3061	0.3686	0.2785	6.3215	1.7057	1.9795	2	191	-1.27654349716077	0	1
"192"	2	49	3	4	7.08	1	2	-1	0	0.598	2.2974	10.4509	2.4063	7.9683	10.6792	3.703	-6.2203	7.6414	6.8944	8.2429	7.8747	13.6209	7.1773	6.5177	4.7335	5.3474	16.8271	9.9282	1.9493	13.129	0.333	0.333	0.333	0.333	0.333	0.333	0.333	0.333	0.333	0.333	0.333	0.333	0.333	0.333	0.333	0.333	0.333	0.333	0.333	6.327	1.47	2.0825	2	192	-0.514164525031505	0	1
"193"	2	29	3	-4	-7.08	1	2	-1	1	0.62	-6.0245	-10.7869	-0.0766	-15.2206	-12.0334	1.8025	-2.1473	-2.9681	-11.5554	-7.5023	-3.5778	-4.8655	-9.7745	-3.3085	-9.4348	-4.9598	-8.881	-15.1547	-3.4235	-13.1494	0.333	0.333	0.333	0.333	0.333	0.333	0.333	0.333	0.333	0.333	0.333	0.333	0.333	0.333	0.333	0.333	0.333	0.333	0.333	6.327	1.6713	2.3037	2	193	-0.478035800943	0	1
"194"	2	21	3	4	7.08	1	3	1	1	0.878	7.7181	9.8128	-3.1139	14.735	16.1688	10.8329	3.3484	5.1972	4.856	4.8181	6.204	1.8195	9.8753	6.1511	3.5204	11.8046	14.2344	0.666	4.1848	6.8381	0.333	0.333	0.333	0.333	0.333	0.333	0.333	0.333	0.333	0.333	0.333	0.333	0.333	0.333	0.333	0.333	0.333	0.333	0.333	6.327	1.5746	2.4623	2	194	-0.13010868534702	1	0
"195"	2	6	3	2	3.54	1	3	1	1	0.765	2.071	3.343	-2.0417	2.793	4.2407	8.8279	-2.5109	-2.5818	12.8011	2.6285	2.658	9.1404	10.6266	10.9462	-2.5725	3.0586	4.6198	4.7721	-2.4679	-1.1786	0.333	0.333	0.333	0.333	0.333	0.333	0.333	0.333	0.333	0.333	0.333	0.333	0.333	0.333	0.333	0.333	0.333	0.333	0.333	6.327	1.4692	2.2495	2	195	-0.267879445155601	1	0
"196"	2	4	3	0	0	1	3	-1	1	0.754	-2.0683	-5.0341	-7.7596	-4.3999	-1.2711	5.5138	11.9468	-1.085	-5.0465	5.934	-1.874	7.7636	1.1707	3.5551	-2.9586	2.0922	-0.0177	-5.5729	-0.5305	-2.0803	0.333	0.333	0.333	0.333	0.333	0.333	0.333	0.333	0.333	0.333	0.333	0.333	0.333	0.333	0.333	0.333	0.333	0.333	0.333	6.327	1.6933	2.4548	2	196	-0.282362910974181	0	1
"197"	2	19	3	1	1.77	1	2	1	1	0.607	1.6179	0.3572	2.1291	-1.2152	6.9015	-7.0987	-0.8529	5.8608	-1.5685	-3.822	4.9682	1.2142	-0.1022	9.0339	7.4794	3.225	-1.6404	12.6513	-6.0924	3.0896	0.333	0.333	0.333	0.333	0.333	0.333	0.333	0.333	0.333	0.333	0.333	0.333	0.333	0.333	0.333	0.333	0.333	0.333	0.333	6.327	1.7087	2.3248	2	197	-0.499226487922639	1	0
"198"	2	52	3	-1	-1.77	0	2	-1	1	0.58	-6.141	-5.5518	-1.4939	0.0408	5.1367	0.3497	-3.4001	5.133	-0.767	-3.9713	-7.6836	5.1368	5.3733	-6.5101	-0.1806	-6.9765	-4.0863	-1.6283	-11.2511	4.1877	0.3378	0.3031	0.4624	0.23	0.4129	0.4558	0.3584	0.3201	0.2287	0.3191	0.3486	0.4829	0.2567	0.3063	0.4152	0.2859	0.2583	0.3282	0.2084	6.3187	1.5047	2.0969	2	198	-0.544727175441672	0	1
"199"	2	62	3	2	3.54	1	2	1	1	0.603	7.8106	-5.1084	6.276	-4.1152	3.6056	2.2542	1.8475	-0.7781	1.5922	13.3454	12.1984	6.3079	1.0632	0.9349	5.7154	8.4403	-1.8653	8.7925	-0.4382	3.9617	0.333	0.333	0.333	0.333	0.333	0.333	0.333	0.333	0.333	0.333	0.333	0.333	0.333	0.333	0.333	0.333	0.333	0.333	0.333	6.327	1.7016	2.3201	2	199	-0.505838082254952	1	0
"200"	2	9	3	-2	-3.54	0	3	1	0	0.657	-0.2635	-1.6765	-5.6368	-1.172	-4.7469	-3.383	-5.146	-6.2007	2.1221	-7.7034	-6.3042	11.5237	-8.8706	3.2177	-5.7778	-9.1642	-8.0955	-6.4121	-3.7236	-4.0735	0.2622	0.3335	0.3765	0.2642	0.3874	0.2811	0.331	0.2481	0.4678	0.3156	0.2323	0.3264	0.4837	0.2766	0.4318	0.2036	0.3768	0.5266	0.2114	6.3366	1.7067	2.374	2	200	-0.420071260497527	1	0
"201"	2	65	3	-2	-3.54	0	3	-1	1	0.939	-4.6905	-0.1832	-2.0089	-4.6805	0.137	-5.5413	-3.6768	4.0762	0.8493	0.9384	0.9127	-5.835	-13.4512	-2.9047	-14.1395	2.2643	-3.689	-0.4947	-10.3149	-8.6973	0.2608	0.4434	0.4166	0.3746	0.5237	0.2916	0.2149	0.4854	0.2606	0.2861	0.2549	0.2291	0.2736	0.4475	0.3426	0.2568	0.3632	0.2285	0.3721	6.326	1.696	2.64	2	201	-0.0629397997738742	0	1
"202"	2	41	3	2	3.54	0	4	1	1	1.041	6.6986	6.1874	4.5933	1.592	7.6263	6.5822	0.4357	-3.9069	-3.2466	-1.7087	2.7093	1.6805	9.0599	3.8459	3.0741	-3.2856	16.9973	0.9601	4.0142	8.0755	0.2846	0.3502	0.2513	0.3771	0.2642	0.2986	0.332	0.4232	0.3285	0.2437	0.3055	0.3823	0.2191	0.5207	0.3499	0.2842	0.3946	0.449	0.2626	6.3213	1.4785	2.525	2	202	0.0401817896328318	1	0
"203"	2	66	3	-1	-1.77	0	3	-1	1	0.728	-2.1115	-5.6472	-1.6449	-0.324	-5.4695	-13.0627	6.9442	2.7817	-1.0656	-6.4971	-6.7017	-0.3028	-0.4848	2.5651	-5.7117	0.3565	1.6961	1.7849	5.1247	-8.1688	0.282	0.2153	0.385	0.497	0.3544	0.247	0.4787	0.5245	0.2038	0.3377	0.3126	0.2018	0.2668	0.3679	0.2787	0.4603	0.2271	0.4177	0.2769	6.3353	1.5882	2.3288	2	203	-0.317454230785451	0	1
"204"	2	11	3	0	0	0	5	1	1	1.343	-0.6571	-10.9017	3.2352	-0.9733	7.0223	1.286	4.2617	-1.0145	-2.3764	1.7225	0.9113	6.5326	2.3982	1.9002	-4.2956	-8.6457	-3.8547	-0.8411	-5.6178	8.8921	0.2922	0.2465	0.3885	0.3093	0.2459	0.5089	0.257	0.4015	0.2082	0.41	0.3616	0.5094	0.3409	0.2649	0.3068	0.2448	0.3538	0.2543	0.4165	6.3212	1.6035	2.9434	2	204	0.294905917541101	1	0
"205"	2	45	3	-1	-1.77	1	3	-1	1	0.729	-2.7169	-1.7388	0.1523	-0.7673	1.0449	2.2589	-11.4048	-1.5737	5.4504	2.23	-12.64	4.2182	1.0058	-5.865	-10.6315	2.2503	-2.8824	-0.5392	-1.5129	-3.213	0.333	0.333	0.333	0.333	0.333	0.333	0.333	0.333	0.333	0.333	0.333	0.333	0.333	0.333	0.333	0.333	0.333	0.333	0.333	6.327	1.52	2.2468	2	205	-0.316081546973479	0	1
"206"	2	5	3	1	1.77	1	2	1	1	0.526	5.2996	-6.214	-2.5242	4.2608	2.5352	3.6774	-4.8231	1.8527	-2.2957	-8.6051	7.9139	-0.9662	-1.7133	5.4059	4.8913	2.2559	8.8215	6.1254	2.8727	7.9346	0.333	0.333	0.333	0.333	0.333	0.333	0.333	0.333	0.333	0.333	0.333	0.333	0.333	0.333	0.333	0.333	0.333	0.333	0.333	6.327	1.5007	2.0268	2	206	-0.642454066244427	1	0
"207"	2	39	3	0	0	0	2	-1	0	0.711	-1.8014	1.2665	5.864	-5.6521	7.0356	-4.6477	-3.8555	6.0622	-6.2032	2.0352	1.9447	5.4671	-7.2237	-0.8387	-5.4736	-5.6309	-4.1479	4.8453	3.6172	6.4319	0.2704	0.5033	0.3283	0.2317	0.3243	0.3609	0.2766	0.3527	0.2014	0.2752	0.4411	0.2242	0.4237	0.3047	0.4365	0.2529	0.4682	0.3599	0.2815	6.3172	1.6152	2.3284	2	207	-0.341082849178896	0	1
"208"	2	38	3	-1	-1.77	0	13	1	0	4.12	-1.8762	9.1798	4.1244	-4.3983	-9.0838	4.1816	-3.9487	-4.2671	4.335	0.6148	-7.8416	-3.861	4.895	-4.5634	-0.9054	-1.4493	-3.2563	-8.8235	-6.1347	-3.2741	0.487	0.3046	0.2346	0.2863	0.3617	0.2266	0.2696	0.4281	0.2394	0.3463	0.2237	0.4398	0.3599	0.4613	0.2291	0.5	0.3179	0.2735	0.3285	6.3179	1.5067	5.6211	2	208	1.41585316336144	1	0
"209"	2	60	3	0	0	1	3	-1	1	0.789	-2.132	-4.5033	8.5078	-2.4588	4.3392	2.2059	2.026	-3.2831	-1.0039	-2.9219	-8.8662	-3.6652	-7.4696	-4.8087	1.6955	-0.5109	5.2823	6.3265	5.8303	5.8446	0.333	0.333	0.333	0.333	0.333	0.333	0.333	0.333	0.333	0.333	0.333	0.333	0.333	0.333	0.333	0.333	0.333	0.333	0.333	6.327	1.6604	2.4727	2	209	-0.236988958136263	0	1
"210"	2	14	3	4	7.08	0	4	1	1	1.211	8.0187	15.4255	6.3134	-1.1144	4.8473	3.8921	9.3667	9.0898	7.7019	8.5655	8.4098	14.8063	11.6234	11.0791	6.6716	6.4309	7.7369	-7.1891	6.0022	4.4405	0.2557	0.4667	0.257	0.4469	0.2189	0.3873	0.2951	0.2119	0.3409	0.2025	0.4567	0.3244	0.4916	0.3123	0.4312	0.2452	0.4026	0.3773	0.2084	6.3323	1.5691	2.7948	2	210	0.191446464570955	1	0
"211"	2	66	4	-1	-1.77	0	3	-1	1	0.859	-4.2731	-3.3391	-7.7728	-7.9728	-2.53	1.6966	-1.6208	-3.3595	1.7134	-2.4886	-4.2591	-6.0136	9.7356	-6.773	7.2823	6.085	3.0813	-5.7317	-4.5814	-4.9758	0.4028	0.2077	0.3757	0.2786	0.3827	0.4878	0.4173	0.3096	0.2122	0.4202	0.273	0.3824	0.2428	0.4422	0.3036	0.4655	0.2403	0.2697	0.2055	6.3196	1.7313	2.6095	2	211	-0.151986356997882	0	1
"212"	2	8	4	-4	-7.08	0	3	-1	1	0.882	-10.0672	-9.3912	-7.7353	-10.8962	-3.0576	-3.7187	0.3311	-12.114	-4.1304	-1.7818	-5.8563	-3.0729	-8.7627	-17.0597	-1.1368	-16.5188	-2.9627	-7.3486	-12.9826	-2.2527	0.2182	0.3691	0.5206	0.2592	0.4647	0.414	0.3014	0.3568	0.2193	0.3187	0.3443	0.4343	0.2355	0.2755	0.4648	0.288	0.3262	0.226	0.2942	6.3307	1.4546	2.3494	2	212	-0.125563222975346	0	1
"213"	2	62	4	2	3.54	1	3	1	1	0.802	2.7091	10.6468	11.8078	-0.0521	12.4609	3.756	2.6333	-1.1061	0.7169	4.7433	7.1618	6.8469	7.7396	-3.4852	-5.2275	6.38	-1.1019	0.6024	1.0975	0.863	0.333	0.333	0.333	0.333	0.333	0.333	0.333	0.333	0.333	0.333	0.333	0.333	0.333	0.333	0.333	0.333	0.333	0.333	0.333	6.327	1.6772	2.4861	2	213	-0.220646671115623	1	0
"214"	2	27	4	2	3.54	0	3	-1	0	0.726	0.1104	9.2628	3.2627	3.0324	3.7241	-3.4381	1.8604	5.7671	10.4399	3.979	-4.1817	5.9378	8.9471	1.9702	2.1164	-7.8568	3.1659	3.4635	13.7186	6.1139	0.3054	0.2528	0.4279	0.3034	0.2048	0.4619	0.2029	0.3171	0.2074	0.2469	0.4028	0.4772	0.3019	0.4529	0.3233	0.4606	0.2212	0.2554	0.5086	6.3345	1.6148	2.3439	2	214	-0.320205264157341	0	1
"215"	2	26	4	1	1.77	0	2	-1	0	0.678	-1.6546	2.6233	7.2987	0.1502	-2.8395	-4.3329	0.0917	6.881	2.9221	5.5739	-1.1459	-4.5979	9.5253	13.3383	-1.3175	4.3331	-2.8219	-0.3842	4.2122	-3.7321	0.4232	0.2781	0.2352	0.4991	0.3584	0.2322	0.2647	0.2018	0.3657	0.4636	0.2077	0.4249	0.5186	0.3898	0.2458	0.2033	0.3783	0.2564	0.3839	6.3309	1.5332	2.2121	2	215	-0.388607991041741	0	1
"216"	2	20	4	2	3.54	1	3	-1	0	0.717	-0.1997	-2.4311	11.0304	11.1218	2.9082	6.588	-5.0234	1.7727	-2.8142	-0.2576	10.1656	5.1282	4.3475	5.3213	8.9132	1.8034	-1.1947	4.2669	10.0796	0.9866	0.333	0.333	0.333	0.333	0.333	0.333	0.333	0.333	0.333	0.333	0.333	0.333	0.333	0.333	0.333	0.333	0.333	0.333	0.333	6.327	1.5775	2.3015	2	216	-0.332679438382517	0	1
"217"	2	61	4	1	1.77	1	3	-1	0	0.884	0.6537	-0.6797	-1.6165	4.3227	6.4547	-0.6194	0.5013	6.8934	-3.5195	8.6768	3.1675	-1.1093	4.7072	-1.3827	8.5846	-7.5822	5.0214	7.9792	2.5422	-7.6136	0.333	0.333	0.333	0.333	0.333	0.333	0.333	0.333	0.333	0.333	0.333	0.333	0.333	0.333	0.333	0.333	0.333	0.333	0.333	6.327	1.7087	2.6015	2	217	-0.123298216344494	0	1
"218"	2	19	4	1	1.77	1	5	1	1	1.555	0.644	1.1778	5.5516	-3.5329	0.7533	9.8806	5.0081	2.9081	-10.3156	2.1586	8.753	0.7345	4.8997	1.6046	-3.876	-0.5793	1.9366	-3.0457	-0.7414	11.0176	0.333	0.333	0.333	0.333	0.333	0.333	0.333	0.333	0.333	0.333	0.333	0.333	0.333	0.333	0.333	0.333	0.333	0.333	0.333	6.327	1.5076	3.0727	2	218	0.441475545631197	1	0
"219"	2	25	4	0	0	0	3	1	1	0.908	-1.2837	1.4636	-4.1593	9.4585	5.3447	-6.7636	5.0137	1.1397	-5.5758	5.9827	-0.9455	-3.9646	0.5214	-4.8594	-2.8527	-1.2296	10.2527	-6.442	0.4472	-1.8207	0.2932	0.4131	0.2024	0.3534	0.5056	0.3426	0.2025	0.3445	0.3152	0.2106	0.4319	0.2759	0.241	0.2699	0.4586	0.3317	0.5103	0.3718	0.2614	6.3356	1.5818	2.492	2	219	-0.0965109003808437	1	0
"220"	2	50	4	-4	-7.08	0	4	-1	1	1.376	-3.2669	-4.2688	-4.7624	-13.9996	-3.9617	-11.6946	-16.9966	-3.6904	0.6656	-6.6021	-15.962	-12.1952	-7.1171	-7.8854	-2.4716	0.1172	-6.5177	-10.1053	-4.7498	-4.2023	0.2406	0.4012	0.2887	0.4819	0.2086	0.4762	0.3417	0.244	0.2023	0.3357	0.4463	0.2729	0.2351	0.3251	0.5124	0.4023	0.2268	0.4437	0.249	6.3347	1.5805	2.9602	2	220	0.319180739511152	0	1
"221"	2	28	4	4	7.08	0	3	1	1	0.869	2.841	8.0929	-2.6072	3.6245	9.603	3.7158	9.8198	15.5384	13.3339	4.4456	15.0994	3.8226	9.3954	4.3377	5.0707	10.1624	9.5078	9.7609	-2.7792	7.114	0.2907	0.5228	0.4726	0.4325	0.4025	0.3562	0.2769	0.2362	0.314	0.3869	0.3608	0.2033	0.283	0.2031	0.2538	0.5	0.225	0.387	0.2265	6.3336	1.6142	2.4865	2	221	-0.140412153716745	1	0
"222"	2	70	4	4	7.08	0	2	1	1	0.688	7.7428	2.6974	3.9675	7.5491	4.1328	2.7563	10.0126	4.6075	15.6519	12.1922	9.9349	4.3681	7.0976	-5.9733	4.9821	8.7236	3.4884	13.3313	13.4198	9.7524	0.4953	0.2336	0.5242	0.2156	0.4895	0.2592	0.3924	0.2197	0.3935	0.23	0.3536	0.2723	0.4572	0.3083	0.2232	0.3246	0.2311	0.4761	0.2327	6.3323	1.6205	2.3052	2	222	-0.373966441048793	1	0
"223"	2	36	4	-4	-7.08	0	3	-1	1	0.847	-10.6739	-3.6909	-2.028	-2.4489	-5.6171	-0.6958	-12.1977	-17.2323	-1.6636	-9.5705	-4.1436	-11.6798	-11.4	-12.7199	-1.7643	0.0883	-6.4515	-8.3675	-12.7474	-6.7397	0.3483	0.2116	0.3549	0.3205	0.2866	0.4668	0.2538	0.3094	0.2473	0.4516	0.2983	0.2155	0.3757	0.4068	0.3467	0.3978	0.3614	0.2259	0.4395	6.3183	1.4437	2.2971	2	223	-0.166054584330083	0	1
"224"	2	54	4	1	1.77	0	8	-1	0	2.371	4.2681	-2.1276	-6.6466	3.8856	-1.2072	-2.0983	-7.1922	1.6109	3.9723	-1.3567	1.9552	2.8365	3.7055	5.486	3.9578	5.9947	-6.4081	11.5955	6.4078	5.8933	0.3563	0.276	0.3136	0.256	0.2001	0.3689	0.4503	0.3469	0.5	0.3233	0.2333	0.3879	0.5037	0.4133	0.2098	0.2687	0.3145	0.2486	0.352	6.3231	1.5523	3.9382	2	224	0.863311807083268	0	1
"225"	2	58	4	-2	-3.54	1	7	-1	1	2.03	-7.1901	-4.2222	-9.3662	-7.0901	-3.7704	-0.4322	1.4815	5.605	-8.999	-2.9269	-4.3719	0.9688	-6.1281	-2.2854	-11.5722	3.4805	-10.3551	-6.1479	2.1295	1.8199	0.333	0.333	0.333	0.333	0.333	0.333	0.333	0.333	0.333	0.333	0.333	0.333	0.333	0.333	0.333	0.333	0.333	0.333	0.333	6.327	1.6114	3.664	2	225	0.708035793053696	0	1
"226"	2	56	4	4	7.08	0	5	1	1	1.553	5.8426	10.7793	12.6377	6.1465	9.0496	-0.8392	5.6656	8.6736	10.9346	16.4447	13.808	11.6056	7.811	-0.1163	1.9369	-1.6495	0.9122	5.3623	8.1998	9.7526	0.2747	0.4241	0.2987	0.3439	0.2429	0.3081	0.3888	0.3216	0.3622	0.4956	0.2132	0.4216	0.2166	0.33	0.5137	0.2291	0.4154	0.2974	0.2218	6.3191	1.6215	3.1876	2	226	0.44018854416655	1	0
"227"	2	59	4	-1	-1.77	1	7	1	0	2.059	-2.5785	1.2576	5.2124	-8.6649	-15.1976	-4.1165	5.8949	-0.686	4.1936	-1.5645	-4.3968	-4.1512	3.7769	-2.1481	-0.5786	2.2044	0.5297	-3.1755	-2.5748	-7.145	0.333	0.333	0.333	0.333	0.333	0.333	0.333	0.333	0.333	0.333	0.333	0.333	0.333	0.333	0.333	0.333	0.333	0.333	0.333	6.327	1.6435	3.7101	2	227	0.722220428045652	1	0
"228"	2	15	4	-4	-7.08	1	3	-1	1	0.726	-2.383	4.7978	-10.1772	-4.034	-9.2259	-7.3142	-3.0461	-11.4046	-2.3068	-11.3306	-5.8333	-8.4712	-7.3715	-13.5072	-1.6967	-4.6653	-11.9357	-18.1218	-7.733	-4.6929	0.333	0.333	0.333	0.333	0.333	0.333	0.333	0.333	0.333	0.333	0.333	0.333	0.333	0.333	0.333	0.333	0.333	0.333	0.333	6.327	1.7144	2.4597	2	228	-0.320205264157341	0	1
"229"	2	16	4	-2	-3.54	1	3	-1	1	0.68	-8.0305	-8.1776	-7.3341	-1.7204	-12.0711	-3.2608	-5.8854	-5.2663	-7.3122	1.0839	1.4505	1.9579	5.4447	-3.4745	-10.481	-3.8998	-3.9067	-5.5124	6.503	-1.8755	0.333	0.333	0.333	0.333	0.333	0.333	0.333	0.333	0.333	0.333	0.333	0.333	0.333	0.333	0.333	0.333	0.333	0.333	0.333	6.327	1.5086	2.1975	2	229	-0.385662480811985	0	1
"230"	2	17	4	-1	-1.77	1	3	-1	1	0.678	-5.6657	-7.5742	4.5636	-0.7801	-0.4529	2.0642	-8.0653	-8.8132	-7.7518	-0.3298	5.9188	-1.0508	0.8029	-1.4943	1.0244	-2.5972	6.2186	-0.9309	-11.0699	0.092	0.333	0.333	0.333	0.333	0.333	0.333	0.333	0.333	0.333	0.333	0.333	0.333	0.333	0.333	0.333	0.333	0.333	0.333	0.333	6.327	1.6242	2.3118	2	230	-0.388607991041741	0	1
"231"	2	31	4	-1	-1.77	1	3	1	0	0.999	1.142	3.5105	-3.8241	4.7941	-5.7445	-4.3352	9.3931	-1.9515	-2.0294	-6.5773	3.6575	1.1695	2.8276	-2.5252	-1.1984	-10.9621	-8.5374	-4.1736	-6.6606	-4.3418	0.333	0.333	0.333	0.333	0.333	0.333	0.333	0.333	0.333	0.333	0.333	0.333	0.333	0.333	0.333	0.333	0.333	0.333	0.333	6.327	1.5884	2.6	2	231	-0.00100050033358353	1	0
"232"	2	37	4	-2	-3.54	0	3	-1	1	0.932	-0.2653	-3.2673	-2.9922	-3.0567	-0.1575	0.7777	4.5102	-11.5115	-6.5268	-7.8965	2.3275	-1.0019	-9.3314	-9.1607	-8.4702	7.1817	-5.2001	-3.4009	-6.7852	-7.8324	0.3988	0.3414	0.4806	0.2742	0.2124	0.275	0.2449	0.4815	0.4344	0.239	0.2698	0.4335	0.2066	0.3795	0.26	0.5292	0.2922	0.3743	0.2088	6.3362	1.5404	2.4826	2	232	-0.0704224642965458	0	1
"233"	2	43	4	-4	-7.08	1	3	-1	1	0.886	-3.7323	-8.3148	-8.7116	-9.9792	-7.341	-12.2729	-5.3319	-16.2057	-6.2172	-10.039	-10.2944	-2.9847	-1.6579	1.658	1.0392	-11.0226	-16.4561	-4.313	-4.6793	-6.7153	0.333	0.333	0.333	0.333	0.333	0.333	0.333	0.333	0.333	0.333	0.333	0.333	0.333	0.333	0.333	0.333	0.333	0.333	0.333	6.327	1.468	2.3536	2	233	-0.121038328377056	0	1
"234"	2	39	4	0	0	0	3	-1	1	0.909	4.6513	0.7538	-5.0687	3.3407	-3.4205	1.6761	-3.1702	4.7035	-0.9449	-3.2468	-2.6049	-4.7129	7.3486	-7.5632	-7.7809	-3.3674	6.5986	-1.5679	7.566	5.6724	0.2616	0.2318	0.4405	0.3665	0.2892	0.361	0.2577	0.5143	0.2947	0.4278	0.2854	0.2391	0.4483	0.2257	0.2922	0.3191	0.4131	0.3629	0.2946	6.3255	1.718	2.6261	2	234	-0.0954101848046582	0	1
"235"	2	38	4	-1	-1.77	0	3	-1	1	0.741	-1.7239	-8.4679	1.3758	6.3936	3.8412	-8.1335	-0.3964	1.7053	-3.3439	-8.1691	0.5018	2.9367	0.8819	-7.8014	-6.7143	-0.5844	-5.8136	2.0711	-8.9068	4.8111	0.2543	0.3313	0.4363	0.235	0.3778	0.2808	0.4281	0.2026	0.3568	0.382	0.3452	0.4069	0.2933	0.424	0.2394	0.3448	0.4613	0.3182	0.2174	6.3353	1.7118	2.4586	2	235	-0.29975465368605	0	1
"236"	2	5	4	1	1.77	1	5	1	1	1.366	1.7138	7.3962	11.6345	6.3786	0.1517	-2.4108	-1.1058	4.107	-3.4188	1.6497	-0.9063	8.4926	0.1364	-1.5876	-6.3834	-0.2128	-7.7484	5.7094	6.4661	5.8757	0.333	0.333	0.333	0.333	0.333	0.333	0.333	0.333	0.333	0.333	0.333	0.333	0.333	0.333	0.333	0.333	0.333	0.333	0.333	6.327	1.4416	2.8166	2	236	0.311886761148598	1	0
"237"	2	40	4	1	1.77	0	4	1	1	1.266	-0.7919	9.5259	-3.8023	-0.4648	-0.6289	2.6854	-6.5416	5.9787	-0.0296	1.4238	1.8636	1.1933	9.3331	10.8678	2.2581	-7.0755	-1.5	6.8291	3.9928	-1.3643	0.5087	0.3039	0.4426	0.2176	0.2803	0.232	0.2772	0.3599	0.2098	0.2365	0.5167	0.2208	0.399	0.2397	0.3714	0.457	0.5106	0.3143	0.2191	6.3172	1.4025	2.6662	2	237	0.235862323721984	1	0
"238"	2	12	4	1	1.77	0	4	-1	0	1.107	-1.2046	1.0411	2.7758	-0.6474	9.5943	3.0901	9.4545	-2.7855	-2.0131	7.2387	-9.974	-2.3438	7.6818	-1.7103	-3.1812	0.9704	4.319	1.9273	4.7062	5.1715	0.2442	0.5079	0.2057	0.3329	0.2105	0.4045	0.297	0.4262	0.2323	0.4156	0.2636	0.3779	0.2968	0.5268	0.3661	0.2527	0.2876	0.3217	0.36	6.3298	1.5553	2.6579	2	238	0.1016536537265	0	1
"239"	2	53	4	0	0	0	2	-1	1	0.794	-2.0506	1.5304	4.2597	-3.6199	6.2034	-7.07	-3.1663	-5.4769	6.4062	-7.0491	-8.6161	2.2709	3.8876	-4.6054	4.485	8.4416	-1.978	0.3553	2.552	1.5823	0.4995	0.304	0.3534	0.3237	0.4567	0.275	0.3369	0.271	0.3215	0.4036	0.4886	0.3464	0.2164	0.2706	0.3258	0.2082	0.3079	0.3583	0.2586	6.326	1.6148	2.4114	2	239	-0.230671817735001	0	1
"240"	2	21	4	4	7.08	1	4	1	1	1.202	3.5706	16.5022	12.519	3.5256	0.1494	5.0998	7.0455	7.2867	13.6345	1.0535	4.6997	7.3653	4.0094	12.6968	7.6856	5.1558	11.4789	-0.695	4.9067	14.7691	0.333	0.333	0.333	0.333	0.333	0.333	0.333	0.333	0.333	0.333	0.333	0.333	0.333	0.333	0.333	0.333	0.333	0.333	0.333	6.327	1.6823	2.9025	2	240	0.183986836113016	1	0
"241"	2	23	4	-2	-3.54	0	5	-1	1	1.394	1.1254	-0.5995	-8.8988	-4.3008	-6.7457	-1.8598	-2.3785	-1.1181	-8.8743	-7.9085	1.2558	2.2072	-9.9716	-5.4287	10.5646	-4.2879	-3.6064	-2.6714	-6.1537	-9.9869	0.3158	0.4508	0.2419	0.2922	0.2076	0.3682	0.2575	0.3335	0.5213	0.295	0.496	0.3152	0.2331	0.4386	0.2786	0.3212	0.3843	0.2181	0.36	6.3288	1.5073	2.9113	2	241	0.332177312338332	0	1
"242"	2	4	4	0	0	1	3	1	0	0.968	1.8641	5.8443	-0.9094	-3.5435	9.7216	-5.788	-9.7165	0.5422	-0.2044	7.0241	0.6091	5.9667	-5.2921	-4.6635	-1.7032	1.0774	-4.9555	5.4582	1.2377	-4.1308	0.333	0.333	0.333	0.333	0.333	0.333	0.333	0.333	0.333	0.333	0.333	0.333	0.333	0.333	0.333	0.333	0.333	0.333	0.333	6.327	1.6212	2.6022	2	242	-0.0325231917055601	1	0
"243"	2	49	4	4	7.08	1	3	1	1	0.867	6.368	6.3504	-0.8457	12.4302	5.4602	6.6658	8.9556	-4.684	12.1484	12.4378	3.9373	5.5901	14.187	8.2278	13.6229	10.738	7.007	7.369	3.7653	1.2484	0.333	0.333	0.333	0.333	0.333	0.333	0.333	0.333	0.333	0.333	0.333	0.333	0.333	0.333	0.333	0.333	0.333	0.333	0.333	6.327	1.7306	2.6183	2	243	-0.142716302201595	1	0
"244"	2	34	4	2	3.54	1	2	1	1	0.666	5.8832	-2.6046	10.4427	-2.4127	6.6098	10.4617	-2.2357	1.0851	7.3895	1.3952	8.7316	1.5607	1.1818	12.0026	-5.3549	3.6071	-0.0998	6.7286	-1.2266	6.4399	0.333	0.333	0.333	0.333	0.333	0.333	0.333	0.333	0.333	0.333	0.333	0.333	0.333	0.333	0.333	0.333	0.333	0.333	0.333	6.327	1.5841	2.2663	2	244	-0.406465608441748	1	0
"245"	2	45	4	-1	-1.77	1	3	-1	1	0.978	1.7195	-2.4401	-6.201	-0.6954	-0.1665	-4.453	-6.6482	-2.9661	7.2994	-3.165	-6.0374	-9.9102	2.6529	4.077	-8.1093	-3.9683	-7.3433	7.3535	1.6437	0.161	0.333	0.333	0.333	0.333	0.333	0.333	0.333	0.333	0.333	0.333	0.333	0.333	0.333	0.333	0.333	0.333	0.333	0.333	0.333	6.327	1.6169	2.6119	2	245	-0.0222456089473197	0	1
"246"	2	60	4	0	0	1	3	1	1	0.75	3.3997	3.3825	2.738	3.1231	1.5227	-4.7264	-3.9994	5.5225	2.0948	3.6921	4.2064	-7.4632	1.4489	-5.9174	9.7245	2.6107	-2.5275	-3.0007	-9.3495	-6.7206	0.333	0.333	0.333	0.333	0.333	0.333	0.333	0.333	0.333	0.333	0.333	0.333	0.333	0.333	0.333	0.333	0.333	0.333	0.333	6.327	1.4224	2.1835	2	246	-0.287682072451781	1	0
"247"	2	29	4	-4	-7.08	1	3	-1	1	0.678	-10.6093	-8.3313	-8.7962	-7.3357	-15.5424	-7.6461	-9.4553	-8.8624	2.0388	-0.589	-11.9615	0.5197	-15.4012	-4.0728	-7.3143	-3.5599	-7.478	-13.4285	-0.588	-3.798	0.333	0.333	0.333	0.333	0.333	0.333	0.333	0.333	0.333	0.333	0.333	0.333	0.333	0.333	0.333	0.333	0.333	0.333	0.333	6.327	1.5726	2.2618	2	247	-0.388607991041741	0	1
"248"	2	42	4	4	7.08	0	2	1	1	0.626	10.002	9.5758	9.4078	3.5707	1.505	4.4041	0.7542	17.8564	3.3692	11.1206	9.1593	13.8242	1.4476	4.643	0.2741	10.1832	3.1519	4.8938	7.9798	12.9884	0.2954	0.4437	0.4737	0.3044	0.2344	0.2629	0.21	0.3659	0.2729	0.2292	0.4682	0.2361	0.2838	0.3219	0.3735	0.5319	0.398	0.3668	0.258	6.3309	1.5683	2.21	2	248	-0.468404907882039	1	0
"249"	2	46	4	0	0	1	3	1	0	0.9	4.2287	-0.4416	14.1359	3.2529	0.2483	1.4748	-0.9256	-2.8796	-1.0478	-5.1101	-9.9835	-4.5987	2.0182	-3.6404	6.1236	2.7564	-1.2679	-2.6326	1.1007	-2.855	0.333	0.333	0.333	0.333	0.333	0.333	0.333	0.333	0.333	0.333	0.333	0.333	0.333	0.333	0.333	0.333	0.333	0.333	0.333	6.327	1.5321	2.434	2	249	-0.105360515657826	1	0
"250"	2	24	4	-1	-1.77	0	2	-1	1	0.696	-2.1492	-7.0398	3.8441	-8.4977	-5.1785	-6.4849	1.7302	-1.5844	3.4336	-1.3083	-8.9095	1.876	-2.4534	1.3337	-2.419	-2.3784	11.2231	-8.382	-2.0063	-0.2987	0.3523	0.4176	0.2392	0.379	0.2825	0.3405	0.2424	0.4531	0.3431	0.251	0.3018	0.4459	0.2681	0.4326	0.2799	0.5146	0.2447	0.2008	0.3305	6.3195	1.6902	2.3964	2	250	-0.362405618647717	0	1
"251"	2	10	4	-1	-1.77	0	2	-1	1	0.65	-4.4143	5.2383	-5.0738	-2.3479	-0.3807	-1.0984	-7.5113	2.8047	-6.7685	-0.4547	5.8556	0.0886	-4.4439	-4.3469	-0.6061	-5.8318	-11.7778	-3.2153	9.9566	0.1818	0.2636	0.4282	0.2914	0.5195	0.3501	0.2368	0.328	0.2719	0.3493	0.2963	0.3838	0.4131	0.2201	0.2672	0.499	0.3424	0.2274	0.2681	0.3616	6.3178	1.5273	2.1841	2	251	-0.430782916092454	0	1
"252"	2	1	4	-4	-7.08	1	2	-1	1	0.593	-8.3495	-9.0956	-0.8313	-9.6859	-2.5991	-7.22	-14.637	-17.7597	3.3017	-4.7335	-3.8431	-8.2256	-8.7612	-6.71	-1.2075	-6.3531	-2.6785	-13.1276	-5.4845	-12.0564	0.333	0.333	0.333	0.333	0.333	0.333	0.333	0.333	0.333	0.333	0.333	0.333	0.333	0.333	0.333	0.333	0.333	0.333	0.333	6.327	1.5448	2.1435	2	252	-0.522560879984412	0	1
"253"	2	48	4	2	3.54	1	5	1	1	1.409	4.4559	-5.5659	7.6466	3.1907	-7.59	-0.7154	7.0109	1.8053	1.3724	4.5717	2.5524	-3.4582	7.8558	11.4957	1.7245	6.7493	7.8148	9.8926	8.571	2.7732	0.333	0.333	0.333	0.333	0.333	0.333	0.333	0.333	0.333	0.333	0.333	0.333	0.333	0.333	0.333	0.333	0.333	0.333	0.333	6.327	1.6977	3.1101	2	253	0.342880232916543	1	0
"254"	2	2	4	-2	-3.54	1	6	-1	1	1.782	-7.5063	-3.6638	-10.897	-2.6234	-7.5616	-2.7152	-8.6758	-8.1746	-0.5871	-1.5833	-7.1727	1.9643	-9.7425	-9.0936	3.7736	-6.2006	0.723	6.4925	1.4348	1.1272	0.333	0.333	0.333	0.333	0.333	0.333	0.333	0.333	0.333	0.333	0.333	0.333	0.333	0.333	0.333	0.333	0.333	0.333	0.333	6.327	1.6902	3.4826	2	254	0.577736329048618	0	1
"255"	2	67	4	0	0	0	5	1	1	1.493	-0.6039	-1.6082	-3.4074	5.8193	-0.5968	-1.9372	0.6778	-0.1922	-6.0167	-3.7214	3.5031	4.6739	9.0841	2.8592	4.6775	-13.4036	3.8411	3.4645	-2.4336	-3.7268	0.3791	0.2052	0.4809	0.2331	0.2931	0.381	0.3212	0.2193	0.4075	0.2285	0.3874	0.2625	0.2252	0.5123	0.2389	0.4608	0.332	0.2554	0.5048	6.3281	1.7175	3.2106	2	255	0.400787518557053	1	0
"256"	2	14	4	4	7.08	0	3	1	1	0.709	7.7566	3.6254	7.5294	9.7938	12.7826	9.3548	2.5962	1.4288	8.3886	5.9782	8.1512	0.9508	3.0963	6.5065	2.327	19.3156	4.8466	3.6164	5.972	17.3963	0.3623	0.273	0.2101	0.3902	0.5194	0.2819	0.2113	0.2491	0.4157	0.3214	0.2408	0.4028	0.3136	0.2591	0.3268	0.4685	0.3583	0.204	0.5156	6.3241	1.4327	2.1595	2	256	-0.34389975245001	1	0
"257"	2	64	4	-4	-7.08	0	3	-1	1	0.767	-2.8706	-0.5244	-10.2387	-9.5931	-6.1847	-14.2288	-5.8995	-16.8582	-0.7934	-2.7057	-9.2646	-5.9638	-4.7685	-2.6945	-4.0383	-2.5956	-3.9185	-14.6842	-13.5064	-10.9368	0.3394	0.2526	0.3437	0.4208	0.3557	0.2038	0.501	0.2404	0.2027	0.3799	0.2931	0.2142	0.3178	0.4513	0.5204	0.2908	0.2279	0.4026	0.3702	6.3283	1.6147	2.4006	2	257	-0.265268477614881	0	1
"258"	2	65	4	-2	-3.54	0	3	-1	1	0.671	-6.2128	-2.9293	-7.1585	-14.8449	1.3403	0.0108	-9.0952	4.6344	-3.3989	-3.8347	-4.3814	-4.3126	-6.402	6.766	-3.4542	-0.0888	-9.958	-6.3829	0.9884	-3.9094	0.2633	0.392	0.5145	0.2784	0.3504	0.4738	0.3557	0.3026	0.4333	0.2055	0.5126	0.2644	0.3015	0.2053	0.2617	0.4895	0.2121	0.2409	0.2775	6.335	1.5986	2.2886	2	258	-0.398986142010455	0	1
"259"	2	13	4	2	3.54	0	2	1	1	0.572	2.0776	1.9353	0.806	0.966	3.5987	10.0833	-1.9304	3.6697	-0.642	5.5609	5.54	10.7475	-0.4484	5.9942	2.3926	-4.9841	6.3443	17.2093	2.4478	-2.0957	0.4657	0.3764	0.4027	0.315	0.3863	0.3268	0.299	0.3452	0.2435	0.2733	0.4805	0.3424	0.2952	0.4891	0.292	0.2455	0.3167	0.2322	0.2054	6.333	1.646	2.2393	2	259	-0.558616287602339	1	0
"260"	2	22	4	-4	-7.08	0	3	-1	1	0.841	-2.6001	-11.9177	0.038	-6.9754	-12.5473	-7.7546	-9.2745	-12.6892	-7.5194	-0.777	-2.1461	-15.2867	-5.6021	-10.7517	-6.2939	-4.9794	-7.0985	-15.2791	-4.6482	2.3572	0.3305	0.422	0.2284	0.2856	0.2298	0.308	0.4154	0.346	0.2589	0.3039	0.3768	0.3341	0.2813	0.5194	0.2216	0.511	0.4158	0.3117	0.2238	6.3238	1.5956	2.4421	2	260	-0.173163619009189	0	1
"261"	2	57	4	-4	-7.08	1	2	-1	1	0.608	-11.2998	-6.0565	2.2918	0.7861	-10.8843	-11.6917	-13.9833	-11.4731	-4.6921	-4.2243	-4.0474	-3.2402	-2.4281	-8.5793	-8.2593	-16.7871	-11.541	-4.4696	-4.664	-7.3857	0.333	0.333	0.333	0.333	0.333	0.333	0.333	0.333	0.333	0.333	0.333	0.333	0.333	0.333	0.333	0.333	0.333	0.333	0.333	6.327	1.6081	2.2255	2	261	-0.49758039701597	0	1
"262"	2	33	4	1	1.77	1	2	-1	0	0.605	-3.1274	6.5008	1.992	6.3238	10.1473	0.3947	-2.4389	1.8937	-2.0902	-3.2806	5.8579	4.9282	4.6959	-1.0635	6.9121	-2.4864	-7.0077	-4.2068	10.0719	1.3179	0.333	0.333	0.333	0.333	0.333	0.333	0.333	0.333	0.333	0.333	0.333	0.333	0.333	0.333	0.333	0.333	0.333	0.333	0.333	6.327	1.5216	2.1387	2	262	-0.502526820951296	0	1
"263"	2	18	4	0	0	1	3	-1	1	0.822	0.8194	8.1454	-4.3367	-0.248	1.1328	2.3233	-2.986	7.1571	-6.8511	-6.6108	7.2504	10.7124	-0.3362	-1.159	-2.9091	-4.884	-6.0194	2.2596	-2.7577	-0.6278	0.333	0.333	0.333	0.333	0.333	0.333	0.333	0.333	0.333	0.333	0.333	0.333	0.333	0.333	0.333	0.333	0.333	0.333	0.333	6.327	1.587	2.4226	2	263	-0.196014883925957	0	1
"264"	2	52	4	-1	-1.77	0	6	1	0	1.757	-5.7449	-6.4627	4.3607	4.6049	-9.4029	-5.7516	-0.8299	-3.8218	3.6749	-2.0175	-3.2139	-4.6518	-8.8986	-0.857	-5.2493	0.1985	11.1129	-2.6368	-1.7695	0.8801	0.2002	0.3512	0.2072	0.333	0.4001	0.4321	0.5051	0.3616	0.4579	0.2096	0.3855	0.2446	0.3429	0.4014	0.3004	0.2179	0.3736	0.2627	0.3377	6.3246	1.4883	3.258	2	264	0.56360780920496	1	0
"265"	2	9	4	-2	-3.54	0	3	-1	1	0.959	-5.0838	-11.9548	-0.0079	1.2572	-2.7449	-1.9393	-2.9922	-6.3114	-1.1142	1.4828	5.4263	-10.7368	-2.1956	-5.3247	-7.0044	7.2469	-8.242	-4.5691	-9.4715	-5.2216	0.2575	0.336	0.4783	0.4323	0.2877	0.2283	0.4387	0.3618	0.5142	0.3024	0.2729	0.2032	0.3823	0.2699	0.3458	0.5297	0.2454	0.2017	0.2434	6.3315	1.661	2.6262	2	265	-0.0418642040986989	0	1
"266"	2	3	4	-1	-1.77	1	3	-1	1	0.841	-1.0902	-1.3118	-0.6084	-0.4664	-8.5959	-3.4302	-8.4036	6.892	-1.8895	-3.9925	-5.6778	-7.3753	5.692	2.668	-0.0368	-6.3468	5.773	-8.8442	-3.2027	4.4809	0.333	0.333	0.333	0.333	0.333	0.333	0.333	0.333	0.333	0.333	0.333	0.333	0.333	0.333	0.333	0.333	0.333	0.333	0.333	6.327	1.4845	2.3246	2	266	-0.173163619009189	0	1
"267"	2	35	4	4	7.08	1	3	1	1	0.685	4.1691	10.3013	11.5606	10.34	9.4785	11.9577	-1.6693	12.1705	-6.0014	7.6241	6.0211	9.6558	2.9137	5.7862	3.0111	8.5926	11.2269	11.1119	10.9507	2.2551	0.333	0.333	0.333	0.333	0.333	0.333	0.333	0.333	0.333	0.333	0.333	0.333	0.333	0.333	0.333	0.333	0.333	0.333	0.333	6.327	1.6518	2.3361	2	267	-0.378336440719912	1	0
"268"	2	69	4	2	3.54	0	5	-1	0	1.228	2.0007	5.4975	-1.738	-4.4953	7.1569	0.5769	4.3541	7.1433	1.4678	-2.238	-5.4066	9.3065	2.6224	-1.2056	11.6452	9.1008	2.9277	5.126	10.8602	4.3074	0.3103	0.2408	0.2147	0.2415	0.3104	0.4071	0.3114	0.3602	0.2275	0.3328	0.3649	0.2968	0.2367	0.4932	0.4055	0.3621	0.4645	0.3336	0.4145	6.3284	1.4731	2.7124	2	268	0.205386829724951	0	1
"269"	2	44	4	-2	-3.54	1	3	-1	1	0.726	-4.5803	-1.9011	-10.5034	-9.6134	-2.5549	-8.8696	-2.8602	-0.7377	3.9679	-4.7762	3.9029	4.8722	-10.2762	-8.8483	-0.2628	-2.6722	-5.0408	-9.0153	4.5584	-3.6331	0.333	0.333	0.333	0.333	0.333	0.333	0.333	0.333	0.333	0.333	0.333	0.333	0.333	0.333	0.333	0.333	0.333	0.333	0.333	6.327	1.5242	2.2596	2	269	-0.320205264157341	0	1
"270"	2	51	4	-2	-3.54	0	3	-1	1	0.852	-4.0379	2.8275	-3.6005	1.0902	2.0854	-3.4965	-13.2041	-5.8437	-9.2388	-2.0194	-5.2326	-6.4947	-5.8365	-1.1241	-0.0082	-3.2029	0.9542	-14.6763	-4.7132	5.024	0.4201	0.3325	0.2651	0.356	0.317	0.4759	0.3341	0.208	0.2798	0.2311	0.3232	0.2925	0.231	0.3783	0.5187	0.3329	0.2406	0.4982	0.287	6.322	1.5846	2.4361	2	270	-0.160168752152821	0	1
"271"	2	41	4	2	3.54	0	3	-1	0	0.895	6.4448	1.0506	-2.8435	2.2056	-4.2247	1.839	1.7767	0.3493	0.7879	8.1016	15.4889	9.1355	6.3121	8.7529	4.9273	5.976	-2.4158	7.267	3.5413	-2.6898	0.2194	0.5052	0.2909	0.23	0.2575	0.3483	0.2206	0.3908	0.2347	0.2777	0.3703	0.3029	0.458	0.5317	0.3121	0.2439	0.4152	0.4735	0.2508	6.3335	1.6106	2.5126	2	271	-0.110931560707282	0	1
"272"	2	7	4	4	7.08	1	3	1	1	0.94	7.9142	4.1237	-2.0813	9.7291	15.1546	1.6105	9.7994	3.5991	16.1566	3.9591	4.2192	6.0856	5.7144	9.1363	13.234	9.4425	7.8446	-1.8179	12.4438	6.6255	0.333	0.333	0.333	0.333	0.333	0.333	0.333	0.333	0.333	0.333	0.333	0.333	0.333	0.333	0.333	0.333	0.333	0.333	0.333	6.327	1.4714	2.4075	2	272	-0.0618754037180875	1	0
"273"	2	32	4	0	0	1	3	-1	1	0.772	-3.2552	3.4611	-4.754	-0.1328	4.1295	-3.0679	0.4862	8.9584	5.6842	-1.467	-1.9515	-2.5298	0.6692	-6.4082	-0.1224	1.6366	-9.9741	7.7086	7.5716	-4.8714	0.333	0.333	0.333	0.333	0.333	0.333	0.333	0.333	0.333	0.333	0.333	0.333	0.333	0.333	0.333	0.333	0.333	0.333	0.333	6.327	1.5726	2.3563	2	273	-0.258770728957361	0	1
"274"	2	63	4	4	7.08	1	3	1	1	0.731	8.2341	-2.5544	13.8119	16.0664	1.1407	7.3464	12.7153	12.7146	3.7712	10.6567	13.6722	2.7315	4.0004	6.0463	6.2625	3.1282	5.094	7.8481	0.5513	7.3154	0.333	0.333	0.333	0.333	0.333	0.333	0.333	0.333	0.333	0.333	0.333	0.333	0.333	0.333	0.333	0.333	0.333	0.333	0.333	6.327	1.5216	2.2646	2	274	-0.313341819232359	1	0
"275"	2	6	4	2	3.54	1	5	-1	0	1.427	3.2553	8.8194	2.6682	3.676	-3.906	9.419	8.7051	0.8407	15.0303	0.8115	3.2555	-2.61	2.8255	0.3001	-5.4113	6.3396	3.4535	3.8015	1.3192	9.0593	0.333	0.333	0.333	0.333	0.333	0.333	0.333	0.333	0.333	0.333	0.333	0.333	0.333	0.333	0.333	0.333	0.333	0.333	0.333	6.327	1.7276	3.1783	2	275	0.355574338494699	0	1
"276"	2	11	4	0	0	0	4	1	1	1.014	2.7315	-2.8587	1.6486	-4.3973	6.7736	-5.0644	-1.229	-10.5426	4.447	7.8481	-2.8582	7.9815	-5.1776	-1.4131	-0.5797	-1.5937	4.8036	-3.9482	3.0137	1.9601	0.2708	0.3951	0.2325	0.3406	0.2818	0.4487	0.3678	0.2081	0.4126	0.382	0.3458	0.3784	0.4354	0.3095	0.2218	0.3152	0.4126	0.2949	0.2651	6.3189	1.5911	2.6151	2	276	0.0139029051689914	1	0
"277"	2	47	4	1	1.77	1	4	-1	0	1.244	4.8632	0.4318	-3.4392	-6.4523	-0.2652	3.1184	4.2883	0.9371	0.0218	2.2859	6.893	5.5031	0.949	4.244	7.8603	-3.7707	2.002	-10.5226	8.7104	7.6134	0.333	0.333	0.333	0.333	0.333	0.333	0.333	0.333	0.333	0.333	0.333	0.333	0.333	0.333	0.333	0.333	0.333	0.333	0.333	6.327	1.5115	2.7612	2	277	0.218331994316988	0	1
"278"	2	30	4	-2	-3.54	1	3	-1	1	0.824	-6.2211	-5.9422	7.5666	2.2335	-1.9137	-9.4241	-3.836	-2.2493	-3.0538	-4.0871	-6.4608	-2.0982	-3.9877	2.7156	-7.2246	3.0832	-11.9663	-10.4428	-8.8056	2.0441	0.333	0.333	0.333	0.333	0.333	0.333	0.333	0.333	0.333	0.333	0.333	0.333	0.333	0.333	0.333	0.333	0.333	0.333	0.333	6.327	1.4771	2.3082	2	278	-0.193584749072665	0	1
"279"	2	55	4	2	3.54	0	3	-1	0	0.782	-0.2535	0.4105	11.2131	0.7786	6.9853	2.7774	6.1027	13.4056	5.3789	-0.0083	-0.0183	2.8996	6.4236	3.0032	-2.4783	-4.4473	5.4407	4.7452	-4.4756	11.1353	0.4299	0.305	0.3892	0.2031	0.2627	0.3136	0.2005	0.3596	0.3072	0.3901	0.3269	0.5035	0.3451	0.2881	0.3863	0.253	0.2088	0.3786	0.469	6.3204	1.5614	2.3497	2	279	-0.245900538436826	0	1
