"subNo"	"index"	"block"	"level"	"mean"	"periodicity"	"nEvents"	"answer"	"isCorrect"	"rt"	"s1"	"s2"	"s3"	"s4"	"s5"	"s6"	"s7"	"s8"	"s9"	"s10"	"s11"	"s12"	"s13"	"s14"	"s15"	"s16"	"s17"	"s18"	"s19"	"s20"	"t1"	"t2"	"t3"	"t4"	"t5"	"t6"	"t7"	"t8"	"t9"	"t10"	"t11"	"t12"	"t13"	"t14"	"t15"	"t16"	"t17"	"t18"	"t19"	"seqDuration"	"startInterval"	"trialDuration"	"pID"	"Trial"	"rtLog"	"right"	"left"
"1"	9	64	1	-4	-8.58	0	3	-1	1	0.621	-6.791	-13.6692	-4.24	-10.039	-17.0586	-4.2854	-7.6011	-6.3156	-8.8724	-10.8515	-1.6308	-11.8892	0.6181	-12.0427	-16.2415	-2.1244	-12.4426	-8.5801	-3.7158	-14.5623	0.2288	0.3655	0.2314	0.2638	0.356	0.3908	0.245	0.4162	0.3037	0.2314	0.3189	0.4318	0.4772	0.2847	0.3253	0.2937	0.3692	0.2712	0.5179	6.3225	1.4992	2.1219	9	1	-0.476424197048658	0	1
"2"	9	60	1	0	0	1	4	-1	0	1.135	-2.4894	-5.3893	-6.4895	8.5301	5.2878	3.4757	-3.2183	6.0139	-1.4378	3.6182	0.7678	9.1566	-1.9484	-2.4779	-4.6765	-6.3309	-1.9802	-5.2675	-0.4791	6.8738	0.333	0.333	0.333	0.333	0.333	0.333	0.333	0.333	0.333	0.333	0.333	0.333	0.333	0.333	0.333	0.333	0.333	0.333	0.333	6.327	1.5914	2.7356	9	2	0.126632650933366	0	1
"3"	9	48	1	2	4.29	1	2	1	1	0.596	4.7639	6.0689	0.218	6.9988	1.4209	-1.5884	7.9032	2.4073	0.4386	7.6767	-3.2679	1.8681	16.0659	1.1906	-0.4531	6.1413	8.3076	10.6938	10.7651	-2.1458	0.333	0.333	0.333	0.333	0.333	0.333	0.333	0.333	0.333	0.333	0.333	0.333	0.333	0.333	0.333	0.333	0.333	0.333	0.333	6.327	1.6289	2.23	9	3	-0.517514611916787	1	0
"4"	9	27	1	2	4.29	0	3	1	1	0.618	4.5628	7.4765	9.6318	0.0458	4.673	7.3708	4.7146	-1.2597	0.5017	-3.1909	7.2915	-2.1752	11.5504	13.2778	6.7172	8.1032	-3.2229	5.9035	7.7447	-2.7605	0.2512	0.2076	0.3123	0.4173	0.3086	0.4215	0.2501	0.35	0.4497	0.2319	0.2028	0.4611	0.3432	0.432	0.3793	0.3206	0.23	0.4025	0.3486	6.3202	1.4598	2.0852	9	4	-0.481266821524446	1	0
"5"	9	19	1	1	2.145	1	4	1	1	1.176	-1.9576	-0.4596	4.9623	2.1086	3.1891	9.8174	0.4366	10.0259	-3.8622	-0.0556	-0.884	3.0935	-7.6128	-0.4464	1.6243	6.13	13.8908	2.9322	1.1559	-2.2753	0.333	0.333	0.333	0.333	0.333	0.333	0.333	0.333	0.333	0.333	0.333	0.333	0.333	0.333	0.333	0.333	0.333	0.333	0.333	6.327	1.4389	2.6263	9	5	0.162118849476435	1	0
"6"	9	46	1	0	0	1	6	-1	0	1.887	-0.3449	8.9764	7.9394	-1.8185	7.7317	1.3271	-3.9982	-7.4611	-1.2266	-0.6542	2.5007	-5.9227	-6.2961	3.1092	-1.5969	-7.2353	-4.3501	4.8709	2.8569	-0.1135	0.333	0.333	0.333	0.333	0.333	0.333	0.333	0.333	0.333	0.333	0.333	0.333	0.333	0.333	0.333	0.333	0.333	0.333	0.333	6.327	1.5619	3.4545	9	6	0.634988266386413	0	1
"7"	9	65	1	-2	-4.29	0	3	-1	1	0.794	-6.804	1.0575	-8.7234	-2.2471	-0.961	-13.567	-9.0417	-1.1287	3.7752	-4.2907	0.3756	-7.3813	-13.7628	2.7925	-4.9244	-4.5849	1.0526	-8.5839	-2.8403	-4.4107	0.4402	0.2238	0.3576	0.5264	0.3135	0.4912	0.2656	0.2034	0.3786	0.2091	0.2979	0.2278	0.3181	0.3682	0.4458	0.3431	0.2253	0.2705	0.4185	6.3244	1.6553	2.4452	9	7	-0.230671817735001	0	1
"8"	9	13	1	2	4.29	0	3	-1	0	1.086	-0.6331	-2.0098	7.0678	5.5579	4.9306	9.6401	3.1341	8.3618	7.6613	1.0631	11.6113	0.1715	-2.1495	4.4382	-4.5242	16.6946	4.9983	2.5866	3.4394	2.4235	0.4606	0.4136	0.3578	0.4903	0.2552	0.3439	0.3003	0.2511	0.3421	0.4182	0.2742	0.2232	0.3075	0.4558	0.2215	0.2534	0.2273	0.3185	0.4155	6.33	1.6429	2.7367	9	8	0.0825012215117438	0	1
"9"	9	1	1	-4	-8.58	1	3	-1	1	0.741	-7.3367	-8.0445	1.28	-13.8784	-10.4428	-5.2223	-12.9238	-17.575	-6.2133	-4.323	-9.7925	-13.2824	-7.5477	-9.4047	-9.7116	-14.6965	-4.6982	1.1392	-6.3438	-12.6578	0.333	0.333	0.333	0.333	0.333	0.333	0.333	0.333	0.333	0.333	0.333	0.333	0.333	0.333	0.333	0.333	0.333	0.333	0.333	6.327	1.6121	2.3747	9	9	-0.29975465368605	0	1
"10"	9	26	1	1	2.145	0	6	1	1	1.732	5.0981	-4.4053	-3.2294	10.3908	8.4398	1.9228	-2.1465	2.4686	10.8997	-1.3263	4.3105	3.6884	12.6379	-0.2776	-0.9274	2.639	1.3173	-2.2533	-2.7695	-1.8777	0.2073	0.2694	0.4204	0.2523	0.3033	0.4308	0.2186	0.2987	0.2218	0.295	0.5027	0.4292	0.3435	0.2976	0.3546	0.289	0.2437	0.5109	0.4284	6.317	1.5981	3.3493	9	10	0.549276810140243	1	0
"11"	9	57	1	-4	-8.58	1	4	-1	1	1.08	-9.0582	-11.3186	-9.4314	-2.6581	-10.5361	-1.8158	-15.438	-4.8294	-9.6287	-10.7143	-6.1948	-12.0334	-1.3496	-10.1433	-16.9888	-6.4924	-9.5092	-15.0908	-11.077	1.7641	0.333	0.333	0.333	0.333	0.333	0.333	0.333	0.333	0.333	0.333	0.333	0.333	0.333	0.333	0.333	0.333	0.333	0.333	0.333	6.327	1.5568	2.6473	9	11	0.0769610411361284	0	1
"12"	9	18	1	0	0	1	2	1	1	0.662	2.1968	-3.262	0.9079	-7.737	-1.0225	2.3696	-1.6279	-3.5153	-9.0672	-2.1055	3.3857	1.822	-2.4717	-2.0653	3.9286	7.5241	9.7638	0.1989	7.85	-6.1824	0.333	0.333	0.333	0.333	0.333	0.333	0.333	0.333	0.333	0.333	0.333	0.333	0.333	0.333	0.333	0.333	0.333	0.333	0.333	6.327	1.5628	2.2456	9	12	-0.412489723045129	1	0
"13"	9	68	1	1	2.145	0	2	1	1	0.712	3.0483	3.0727	-6.8323	0.419	12.7647	-1.036	9.2252	4.7137	-2.8317	-1.0694	4.5816	-1.9549	2.6255	-1.432	2.475	-3.3582	0.1448	11.4682	6.0529	0.0495	0.4362	0.2835	0.2204	0.3054	0.373	0.2137	0.4622	0.3571	0.2035	0.3099	0.4798	0.3726	0.479	0.2253	0.2521	0.465	0.2791	0.397	0.2209	6.3357	1.5723	2.2966	9	13	-0.339677367570161	1	0
"14"	9	51	1	-2	-4.29	0	3	-1	1	0.802	-3.5282	-2.3309	-4.496	-1.0954	2.8536	-8.6441	-15.1838	-1.3782	-3.1043	-6.7842	-5.6603	-14.7453	5.1004	-2.0973	-6.1501	-3.9806	3.1618	-6.6202	-4.9699	-4.7265	0.2175	0.2951	0.3922	0.3135	0.2203	0.3339	0.486	0.5189	0.2853	0.4996	0.2311	0.4839	0.3383	0.2376	0.3181	0.2584	0.3589	0.2835	0.2507	6.3227	1.5163	2.3361	9	14	-0.220646671115623	0	1
"15"	9	70	1	4	8.58	0	3	1	1	0.622	8.8383	19.2286	4.0894	6.9691	6.1473	11.3162	11.1038	12.6057	5.9754	5.2773	7.6534	9.9956	5.9747	-3.6381	5.6691	9.0295	3.4362	14.4557	11.7614	14.6656	0.3467	0.2667	0.2168	0.4536	0.3103	0.3692	0.3007	0.4557	0.4084	0.3155	0.4084	0.2884	0.4214	0.2986	0.3244	0.2017	0.4745	0.2513	0.2058	6.3181	1.5277	2.1564	9	15	-0.474815186242958	1	0
"16"	9	38	1	-1	-2.145	0	4	-1	1	1.144	-3.2886	-8.3196	-2.3422	-13.3625	7.0647	-3.2215	-4.624	5.8791	-5.8076	-2.7017	-7.5804	2.4796	-1.635	-1.5989	4.2755	-0.7483	-1.4059	-3.7062	4.873	-5.479	0.2909	0.4381	0.3314	0.4448	0.2238	0.2967	0.2157	0.3773	0.211	0.4338	0.2449	0.2007	0.4175	0.3599	0.3269	0.2924	0.3721	0.5307	0.3244	6.3331	1.4561	2.6109	9	16	0.134530892957606	0	1
"17"	9	36	1	-4	-8.58	0	3	-1	1	0.833	-4.767	-6.6711	-13.6041	-0.9806	-9.1426	-2.8495	-20.8218	-13.3079	-11.9395	-12.4053	-8.5929	-2.1143	-7.4552	-9.8825	-6.4032	-11.0214	-8.597	-13.9133	-0.3904	-6.8668	0.3014	0.4642	0.3556	0.2982	0.4416	0.2232	0.3244	0.226	0.2913	0.3582	0.4305	0.2071	0.3652	0.2251	0.4616	0.3462	0.2923	0.4852	0.2221	6.3193	1.7168	2.5668	9	17	-0.182721636815294	0	1
"18"	9	43	1	-4	-8.58	1	2	-1	1	0.602	-4.3827	-14.8047	-7.1726	-10.9132	3.2017	-13.4374	-2.1653	-8.6583	-13.2283	-5.7495	-9.6104	-11.1438	-12.7131	-4.6678	-8.8214	-11.5277	-18.1531	-7.1143	-8.9205	-2.0065	0.333	0.333	0.333	0.333	0.333	0.333	0.333	0.333	0.333	0.333	0.333	0.333	0.333	0.333	0.333	0.333	0.333	0.333	0.333	6.327	1.6497	2.2531	9	18	-0.507497833673316	0	1
"19"	9	53	1	0	0	0	3	1	0	0.93	2.7219	-10.5972	3.957	3.483	-13.4198	4.4302	6.5626	-0.6637	1.4122	-2.6196	2.0791	0.5837	2.8598	-1.7741	-2.167	8.0805	-0.4756	-1.334	-0.5313	-2.0586	0.4198	0.2034	0.4004	0.2787	0.202	0.286	0.2503	0.306	0.4633	0.3962	0.2198	0.347	0.386	0.5054	0.4624	0.2246	0.5145	0.2125	0.2408	6.319	1.6335	2.5637	9	19	-0.0725706928348354	1	0
"20"	9	41	1	2	4.29	0	5	1	1	1.378	1.0671	12.4599	12.8361	-4.2617	8.8882	0.7423	2.3962	6.3106	6.8022	-1.4618	10.9225	6.5913	8.1867	0.8432	0.9968	-5.2346	2.6062	6.5453	3.5764	4.682	0.2188	0.3638	0.2123	0.2683	0.4417	0.2518	0.355	0.4398	0.2729	0.2166	0.2623	0.3754	0.5237	0.2916	0.3171	0.4198	0.4481	0.355	0.2895	6.3233	1.4132	2.7953	9	20	0.320633172591467	1	0
"21"	9	37	1	-2	-4.29	0	4	-1	1	1.29	-7.4371	-9.7243	-6.2162	-11.0604	-6.7866	-3.1298	-6.5465	1.078	-2.3718	-1.1172	0.5489	-12.8055	-2.0518	10.4182	-8.7796	-3.9548	-2.825	-5.3068	-2.1762	-3.8132	0.3419	0.4942	0.2676	0.456	0.2522	0.3304	0.2543	0.4882	0.2004	0.3889	0.4399	0.2697	0.2271	0.2606	0.4972	0.3494	0.2154	0.2581	0.3332	6.3247	1.6952	2.9907	9	21	0.254642218373581	0	1
"22"	9	2	1	-2	-4.29	1	4	-1	1	1.135	-8.3889	-0.827	0.7367	-5.1237	-3.4146	-8.2489	1.2069	-6.9333	0.7841	-2.5017	-9.5831	3.4685	-10.1591	0.5015	-4.2152	-9.8454	-7.0254	-8.675	-11.011	4.1181	0.333	0.333	0.333	0.333	0.333	0.333	0.333	0.333	0.333	0.333	0.333	0.333	0.333	0.333	0.333	0.333	0.333	0.333	0.333	6.327	1.5555	2.7027	9	22	0.126632650933366	0	1
"23"	9	69	1	2	4.29	0	3	1	1	0.832	3.0581	12.2688	12.3155	4.5622	6.5729	6.1956	1.7146	-1.0261	1.6444	1.4023	0.8228	1.3997	1.922	9.2537	6.2597	-0.075	4.6032	12.7799	6.2431	-7.7252	0.4239	0.2903	0.4361	0.246	0.2818	0.2272	0.3942	0.3436	0.2077	0.4439	0.4808	0.3894	0.3469	0.3187	0.237	0.5019	0.2336	0.3275	0.2059	6.3364	1.6611	2.4993	9	23	-0.183922838160928	1	0
"24"	9	7	1	4	8.58	1	2	1	1	0.535	8.1998	12.142	3.4703	6.1678	4.6921	12.0161	15.4684	14.4788	4.0298	3.2124	8.9784	21.766	7.5057	9.2555	6.1074	11.8194	2.6541	4.3637	2.9408	10.7175	0.333	0.333	0.333	0.333	0.333	0.333	0.333	0.333	0.333	0.333	0.333	0.333	0.333	0.333	0.333	0.333	0.333	0.333	0.333	6.327	1.705	2.236	9	24	-0.62548853208613	1	0
"25"	9	58	1	-2	-4.29	1	3	-1	1	0.867	-2.3974	-11.6003	-10.4206	-3.0708	-8.8337	1.4124	-0.2809	-5.3832	-5.6237	-9.9616	-3.8845	-0.1203	-4.7157	-12.6707	2.5256	3.6307	-8.0483	1.7565	-8.1161	-1.1134	0.333	0.333	0.333	0.333	0.333	0.333	0.333	0.333	0.333	0.333	0.333	0.333	0.333	0.333	0.333	0.333	0.333	0.333	0.333	6.327	1.5574	2.4178	9	25	-0.142716302201595	0	1
"26"	9	59	1	-1	-2.145	1	2	-1	1	0.62	-6.8046	-11.8599	3.8993	4.6678	-0.3338	-4.5394	4.7972	-0.8183	2.8445	-6.0547	-5.4222	-5.8749	4.1779	-0.4384	2.6544	1.1142	-6.3642	-1.7289	-8.6652	-6.8807	0.333	0.333	0.333	0.333	0.333	0.333	0.333	0.333	0.333	0.333	0.333	0.333	0.333	0.333	0.333	0.333	0.333	0.333	0.333	6.327	1.5912	2.2205	9	26	-0.478035800943	0	1
"27"	9	23	1	-2	-4.29	0	2	-1	1	0.48	-7.9433	-7.2091	-11.5063	-8.5206	0.6054	-6.8343	-4.1807	-4.1029	3.4496	-5.7934	-5.456	-15.6591	-0.9547	0.6243	-3.4477	0.306	-9.051	-0.8043	2.6728	-0.2177	0.2156	0.4119	0.2598	0.3421	0.293	0.2266	0.4017	0.4564	0.3828	0.203	0.2534	0.2007	0.5041	0.3763	0.4291	0.3677	0.4001	0.3539	0.239	6.3171	1.6803	2.1809	9	27	-0.7339691750802	0	1
"28"	9	50	1	-4	-8.58	0	2	-1	1	0.517	-6.322	0.179	-1.8795	-12.0797	-11.9777	-13.3133	-7.9946	-10.4863	0.0441	-13.4987	-12.5742	-12.2102	-12.6403	-16.3211	-5.9441	-2.5815	-4.8664	-5.1129	-9.796	-12.8877	0.4385	0.2439	0.381	0.5206	0.3435	0.2396	0.3007	0.4517	0.2257	0.4044	0.3411	0.2532	0.4305	0.3925	0.2278	0.2003	0.2932	0.4107	0.229	6.3279	1.4879	2.0172	9	28	-0.659712404473708	0	1
"29"	9	47	1	1	2.145	1	2	1	1	0.576	6.8902	1.6732	-6.8596	0.4426	8.5284	6.235	-3.0209	7.2156	12.9811	-3.4939	-1.1678	1.6478	2.9578	1.8745	4.304	6.2009	1.2838	-4.263	3.1261	-2.7773	0.333	0.333	0.333	0.333	0.333	0.333	0.333	0.333	0.333	0.333	0.333	0.333	0.333	0.333	0.333	0.333	0.333	0.333	0.333	6.327	1.4509	2.0433	9	29	-0.551647618286246	1	0
"30"	9	39	1	0	0	0	3	1	1	0.549	1.9965	-1.5054	2.9524	-2.9043	0.2821	1.5044	9.7497	-13.3926	2.2643	-6.0916	7.108	-0.7745	-6.0131	-2.2464	-1.2122	-3.3627	4.8259	1.8139	0.7031	2.71	0.2755	0.2502	0.3068	0.4629	0.2104	0.4435	0.3076	0.2504	0.354	0.2168	0.2976	0.4762	0.5025	0.3893	0.3162	0.345	0.4168	0.2839	0.2174	6.3228	1.5731	2.1329	9	30	-0.599656837472606	1	0
"31"	9	21	1	4	8.58	1	2	1	1	0.464	11.7981	-1.4022	9.6967	4.8465	10.3694	4.67	7.1985	14.0093	8.5084	3.6568	14.2945	11.2104	14.9179	4.1473	4.688	5.7267	5.2102	19.4994	5.1131	11.9384	0.333	0.333	0.333	0.333	0.333	0.333	0.333	0.333	0.333	0.333	0.333	0.333	0.333	0.333	0.333	0.333	0.333	0.333	0.333	6.327	1.6778	2.1479	9	31	-0.767870726755882	1	0
"32"	9	17	1	-1	-2.145	1	3	-1	1	0.686	-3.6911	-9.1804	9.6699	-7.0821	-8.6106	-2.5299	-0.08	-0.8425	3.1764	-6.8922	-3.8534	-0.2631	-5.3357	3.018	6.171	-6.0733	-7.6963	-0.9722	1.906	-3.5915	0.333	0.333	0.333	0.333	0.333	0.333	0.333	0.333	0.333	0.333	0.333	0.333	0.333	0.333	0.333	0.333	0.333	0.333	0.333	6.327	1.6049	2.3037	9	32	-0.376877651256252	0	1
"33"	9	52	1	-1	-2.145	0	3	-1	1	0.732	-0.5156	-1.882	-8.4207	-0.4698	-6.696	-0.2846	0.4725	-1.6862	-1.3548	-7.3678	-5.3852	2.7214	2.9073	3.0396	-6.5631	-1.9489	-12.9748	5.1858	-7.7157	5.0638	0.3997	0.3167	0.2704	0.3216	0.2231	0.2536	0.352	0.4974	0.2687	0.2194	0.2497	0.2184	0.4701	0.4131	0.2406	0.4703	0.421	0.455	0.2674	6.3282	1.5541	2.2998	9	33	-0.311974765020825	0	1
"34"	9	4	1	0	0	1	3	1	1	0.718	-0.7734	-3.7496	9.4061	5.9776	-0.4762	-0.4845	7.4641	-2.1546	11.7191	-1.1955	-4.0532	-4.5643	-4.8294	-1.5204	-4.8707	-1.498	1.6058	0.9017	-3.9366	-4.8957	0.333	0.333	0.333	0.333	0.333	0.333	0.333	0.333	0.333	0.333	0.333	0.333	0.333	0.333	0.333	0.333	0.333	0.333	0.333	6.327	1.5674	2.3023	9	34	-0.331285709933913	1	0
"35"	9	20	1	2	4.29	1	3	1	1	0.732	4.2688	6.028	7.2094	2.5552	3.4734	-4.7967	7.2966	6.92	3.0055	2.8059	6.2381	4.0157	0.6497	1.7621	11.5465	4.4232	-0.9158	15.0247	-6.2071	9.0087	0.333	0.333	0.333	0.333	0.333	0.333	0.333	0.333	0.333	0.333	0.333	0.333	0.333	0.333	0.333	0.333	0.333	0.333	0.333	6.327	1.5755	2.3156	9	35	-0.311974765020825	1	0
"36"	9	30	1	-2	-4.29	1	2	-1	1	0.579	0.0277	2.5721	-3.8086	1.3231	-9.1521	-2.0049	-1.039	0.7562	-2.3936	-2.5274	-11.0906	-9.7027	-9.4299	-8.471	-8.4584	-1.7077	-15.0101	2.3078	-5.6503	-2.3571	0.333	0.333	0.333	0.333	0.333	0.333	0.333	0.333	0.333	0.333	0.333	0.333	0.333	0.333	0.333	0.333	0.333	0.333	0.333	6.327	1.5492	2.1301	9	36	-0.546452801409142	0	1
"37"	9	44	1	-2	-4.29	1	2	-1	1	0.504	-7.5472	-11.8379	-6.7184	-8.8014	-9.1405	4.4691	-0.2423	-0.3247	-6.5742	-2.648	0.0916	-1.7273	-3.9271	4.7474	-5.6985	-9.7696	1.4593	-4.0561	-4.7915	-11.6694	0.333	0.333	0.333	0.333	0.333	0.333	0.333	0.333	0.333	0.333	0.333	0.333	0.333	0.333	0.333	0.333	0.333	0.333	0.333	6.327	1.6919	2.2048	9	37	-0.685179010910768	0	1
"38"	9	10	1	-1	-2.145	0	2	1	0	0.577	1.7027	0.6461	3.2278	0.9638	-12.4595	-7.1992	4.3036	-6.8156	-5.4972	-3.2241	-5.0628	1.2429	-6.2679	-4.389	-0.5169	1.7911	-7.1572	8.974	-3.2703	-1.8935	0.428	0.2617	0.519	0.209	0.4785	0.2383	0.2965	0.3669	0.4795	0.2041	0.2329	0.3324	0.4325	0.3351	0.2263	0.3793	0.2026	0.3386	0.3653	6.3264	1.6107	2.1946	9	38	-0.549913012474038	1	0
"39"	9	24	1	-1	-2.145	0	3	-1	1	0.637	-1.4126	-8.3352	-2.7801	-1.2646	5.4366	-3.0476	-9.0143	-4.6036	5.0714	4.6242	-3.7042	5.1438	-6.6454	1.954	-6.2333	-0.3432	2.6714	-9.7854	-8.6414	-0.5628	0.2622	0.2328	0.2741	0.2338	0.2633	0.4666	0.2203	0.3102	0.2085	0.2338	0.528	0.4406	0.5111	0.2639	0.2014	0.5031	0.3589	0.3303	0.4848	6.3277	1.6664	2.3049	9	39	-0.450985623409974	0	1
"40"	9	35	1	4	8.58	1	2	1	1	0.532	7.0374	6.167	2.4253	7.0997	15.6378	11.7789	3.1613	12.3558	8.7637	12.7194	14.2298	8.6748	10.6189	7.6418	6.0478	7.7141	-0.1453	0.3811	19.3817	9.7258	0.333	0.333	0.333	0.333	0.333	0.333	0.333	0.333	0.333	0.333	0.333	0.333	0.333	0.333	0.333	0.333	0.333	0.333	0.333	6.327	1.472	2.0163	9	40	-0.631111789640493	1	0
"41"	9	16	1	-2	-4.29	1	2	-1	1	0.473	-7.004	-5.2226	-4.2063	-9.413	-3.5961	0.5014	-7.4798	0.1087	-0.1957	-4.1899	-5.3004	8.395	-0.2341	0.161	-5.8938	-9.456	-14.5563	-9.0723	-6.7	-1.7306	0.333	0.333	0.333	0.333	0.333	0.333	0.333	0.333	0.333	0.333	0.333	0.333	0.333	0.333	0.333	0.333	0.333	0.333	0.333	6.327	1.4967	1.9737	9	41	-0.748659890490204	0	1
"42"	9	40	1	1	2.145	0	2	1	1	0.498	4.8474	4.1961	0.034	-3.4132	1.8016	0.2238	4.3848	12.0157	0.546	4.8985	-6.1063	2.8009	-5.3061	-2.5019	7.5393	11.4721	-0.8535	6.8325	-2.4712	3.6647	0.2929	0.2385	0.3483	0.2284	0.3351	0.4172	0.2816	0.2469	0.4082	0.2499	0.4362	0.2928	0.4006	0.2252	0.527	0.2282	0.2667	0.5098	0.3873	6.3208	1.408	1.915	9	42	-0.697155201957484	1	0
"43"	9	56	1	4	8.58	0	2	1	1	0.569	12.841	5.1503	12.4112	11.6714	3.5384	17.9319	11.5601	8.8192	6.5037	11.1464	12.922	10.2983	7.8758	6.3915	12.0456	10.4933	1.2211	-5.0479	8.3865	7.3912	0.3693	0.4201	0.3422	0.2497	0.4326	0.3563	0.269	0.2019	0.2931	0.3237	0.3899	0.2511	0.2054	0.463	0.2933	0.3945	0.2878	0.4031	0.3724	6.3182	1.5014	2.0698	9	43	-0.563874844855806	1	0
"44"	9	62	1	2	4.29	1	3	1	1	0.819	5.4545	7.6462	-1.3675	3.5031	2.4516	-5.6354	11.3443	10.725	7.2896	5.2837	0.1549	10.9577	4.0582	2.4519	-2.8462	7.3912	7.1479	7.1099	-4.3039	8.5527	0.333	0.333	0.333	0.333	0.333	0.333	0.333	0.333	0.333	0.333	0.333	0.333	0.333	0.333	0.333	0.333	0.333	0.333	0.333	6.327	1.6573	2.4698	9	44	-0.199671195129068	1	0
"45"	9	12	1	1	2.145	0	2	1	1	0.411	5.7459	1.8268	-1.2078	5.3334	1.09	1.6407	-3.358	10.8364	-3.9938	-5.3304	11.7235	-3.0079	-2.7499	4.9634	2.3131	-1.2031	0.8905	10.2365	4.0291	3.0252	0.3879	0.5039	0.255	0.2156	0.2579	0.3759	0.5248	0.284	0.2455	0.2795	0.3925	0.2741	0.3157	0.4859	0.2103	0.4824	0.2097	0.3464	0.2882	6.3351	1.669	2.0949	9	45	-0.889162064485903	1	0
"46"	9	32	1	0	0	1	2	-1	1	0.513	-4.8161	-1.4068	-0.1378	5.7335	1.2392	1.9316	1.5519	-2.3577	4.1866	-6.4451	8.1773	-0.6963	-1.3585	4.3655	-2.8572	-13.7686	-4.7831	1.6002	6.3771	3.4179	0.333	0.333	0.333	0.333	0.333	0.333	0.333	0.333	0.333	0.333	0.333	0.333	0.333	0.333	0.333	0.333	0.333	0.333	0.333	6.327	1.4613	1.9969	9	46	-0.667479433811368	0	1
"47"	9	63	1	4	8.58	1	2	1	1	0.404	8.5085	18.7719	5.3815	11.7503	8.3268	1.8621	6.8425	6.5652	3.643	3.3256	4.4357	15.3717	5.0081	6.6928	10.6198	18.7704	3.6707	5.3578	13.1268	12.0448	0.333	0.333	0.333	0.333	0.333	0.333	0.333	0.333	0.333	0.333	0.333	0.333	0.333	0.333	0.333	0.333	0.333	0.333	0.333	6.327	1.4072	1.8216	9	47	-0.906340401020987	1	0
"48"	9	9	1	-2	-4.29	0	2	-1	1	0.487	0.2669	-3.131	-9.26	-12.0089	1.0422	-0.9843	-7.0528	-9.8912	-9.8562	-1.3469	-12.0942	-6.3937	-5.7778	-4.7126	0.6718	0.0541	4.2254	-9.018	-1.4456	1.4529	0.2554	0.3803	0.2143	0.3201	0.4043	0.4605	0.2286	0.3336	0.488	0.2986	0.4651	0.2136	0.4134	0.3304	0.4335	0.2038	0.3467	0.2357	0.3008	6.3268	1.6226	2.1216	9	48	-0.719491155899547	0	1
"49"	9	15	1	-4	-8.58	1	2	-1	1	0.485	-3.6494	-1.2135	-12.1983	-12.9517	-7.0673	-10.7794	-4.0301	-14.9607	-9.3946	-9.0215	0.5184	-12.4992	-5.6048	-1.9318	-3.9676	-8.8073	-14.4177	-10.862	-16.1538	-14.5923	0.333	0.333	0.333	0.333	0.333	0.333	0.333	0.333	0.333	0.333	0.333	0.333	0.333	0.333	0.333	0.333	0.333	0.333	0.333	6.327	1.4617	1.9528	9	49	-0.723606388044654	0	1
"50"	9	42	1	4	8.58	0	1	1	1	0.304	9.5989	5.458	1.0348	2.9284	12.9871	11.6052	4.3164	6.3024	12.0594	1.1646	5.1293	12.0235	8.552	4.9381	8.4292	8.2949	5.6197	14.1151	19.4478	15.6443	0.348	0.3824	0.417	0.4543	0.2141	0.3096	0.5201	0.2008	0.4824	0.2369	0.3099	0.2639	0.3166	0.2423	0.2676	0.2293	0.5116	0.2307	0.3989	6.3366	1.5084	1.8218	9	50	-1.19072757757592	1	0
"51"	9	11	1	0	0	0	3	-1	0	0.631	-4.6247	1.5288	-11.5872	-3.3133	4.7982	10.7069	1.5146	2.6078	1.4773	1.4044	-3.8053	3.5149	-4.4096	1.678	0.9756	1.5602	2.1001	-2.0931	4.8545	-7.66	0.2377	0.2833	0.4344	0.2696	0.3229	0.4231	0.204	0.2762	0.3551	0.2179	0.4415	0.4868	0.2892	0.3311	0.3954	0.2343	0.283	0.346	0.4882	6.3197	1.4285	2.0651	9	51	-0.460449416440924	0	1
"52"	9	31	1	-1	-2.145	1	3	-1	1	0.798	-5.5836	-2.0546	-3.0488	-4.412	-2.7359	-6.1648	-2.7376	-4.6397	4.519	2.3582	-5.433	-1.3798	-14.5349	4.7982	-6.5219	-1.5031	2.5761	-1.2121	9.1903	-2.5786	0.333	0.333	0.333	0.333	0.333	0.333	0.333	0.333	0.333	0.333	0.333	0.333	0.333	0.333	0.333	0.333	0.333	0.333	0.333	6.327	1.6168	2.4319	9	52	-0.225646681532328	0	1
"53"	9	14	1	4	8.58	0	2	1	1	0.673	10.3292	9.6004	3.7958	1.392	6.4263	5.703	14.218	17.0498	13.416	10.2423	6.3196	10.2781	8.1974	4.6007	12.9938	1.1194	12.7028	17.8993	2.8917	3.0578	0.3001	0.4677	0.2233	0.4781	0.5225	0.2382	0.293	0.3494	0.3758	0.3016	0.2067	0.3005	0.5123	0.2561	0.2066	0.4211	0.2348	0.4197	0.224	6.3316	1.6063	2.2902	9	53	-0.396009949337409	1	0
"54"	9	3	1	-1	-2.145	1	6	1	0	1.914	-1.6116	-2.7016	-7.8913	4.0915	-6.7798	-0.9131	8.6769	-6.6562	-8.5994	-1.9048	-4.5097	-2.0907	-2.3854	1.8819	7.0145	-5.5442	-4.4698	-4.0243	-9.0424	3.6594	0.333	0.333	0.333	0.333	0.333	0.333	0.333	0.333	0.333	0.333	0.333	0.333	0.333	0.333	0.333	0.333	0.333	0.333	0.333	6.327	1.6569	3.5816	9	54	0.649195293030763	1	0
"55"	9	29	1	-4	-8.58	1	3	-1	1	0.751	-7.8867	-12.4917	-5.9993	-15.1506	-13.9728	-4.66	-5.3283	-5.4374	-3.7822	-4.2482	-10.671	-6.1754	-5.6756	-11.4549	-13.8292	-16.1859	3.3457	-14.4696	-6.2218	-9.6811	0.333	0.333	0.333	0.333	0.333	0.333	0.333	0.333	0.333	0.333	0.333	0.333	0.333	0.333	0.333	0.333	0.333	0.333	0.333	6.327	1.6529	2.4183	9	55	-0.286349627218002	0	1
"56"	9	61	1	1	2.145	1	3	1	1	0.821	6.0313	8.5832	6.3115	1.1991	1.3316	-0.2195	4.8899	-4.3365	-4.4647	10.5735	-2.4358	-5.2432	6.1644	0.0819	1.2161	3.0327	-2.1583	9.8746	6.352	-3.3931	0.333	0.333	0.333	0.333	0.333	0.333	0.333	0.333	0.333	0.333	0.333	0.333	0.333	0.333	0.333	0.333	0.333	0.333	0.333	6.327	1.4619	2.2884	9	56	-0.197232169529709	1	0
"57"	9	22	1	-4	-8.58	0	2	-1	1	0.638	-10.3628	-16.7864	-3.803	-4.4188	-6.4867	-4.2173	-9.1486	-9.3499	-13.5495	-17.1155	-3.8601	-11.15	-6.5165	-2.6404	-4.5838	-10.7089	-9.5213	-13.3433	1.4858	-13.5311	0.3794	0.286	0.4606	0.223	0.4335	0.2754	0.4023	0.2135	0.5016	0.2367	0.5099	0.297	0.4266	0.3512	0.2392	0.3615	0.215	0.2711	0.2347	6.3183	1.4674	2.105	9	57	-0.449416995637347	0	1
"58"	9	25	1	0	0	0	4	1	1	1.214	1.015	3.6391	5.2295	6.0841	4.3897	1.2889	-5.462	-5.8927	-10.6633	-3.7396	2.1716	-0.4399	0.2849	-4.0969	2.9838	-0.4051	-7.5826	4.6655	0.5915	7.5554	0.2991	0.2095	0.4194	0.4822	0.201	0.3408	0.2884	0.5087	0.4316	0.2127	0.3693	0.2673	0.4914	0.3689	0.3089	0.2612	0.2983	0.238	0.3356	6.3322	1.5042	2.7309	9	58	0.193920692637306	1	0
"59"	9	55	1	2	4.29	0	5	1	1	1.303	0.874	0.4121	-0.8432	3.3431	7.9022	-7.3089	0.4063	8.9086	-1.1486	11.1755	7.3465	4.0147	3.5082	6.7469	8.1515	11.3895	4.2752	-0.8003	8.1763	8.6665	0.2663	0.4407	0.2106	0.2535	0.2858	0.2266	0.2994	0.5326	0.2134	0.4844	0.4299	0.25	0.2961	0.2493	0.2777	0.4244	0.5033	0.3975	0.2839	6.3253	1.517	2.8207	9	59	0.264669298142708	1	0
"60"	9	28	1	4	8.58	0	4	1	1	0.891	7.8457	0.7483	5.973	11.9148	5.915	13.4873	3.5733	5.1929	15.433	11.3879	7.3391	10.4122	7.5967	-2.0692	7.7601	11.8229	12.2921	15.1308	4.0022	16.7679	0.2092	0.3463	0.306	0.2598	0.3808	0.2754	0.3181	0.2348	0.2627	0.3009	0.5052	0.3158	0.2435	0.3986	0.4604	0.3567	0.2539	0.3692	0.5274	6.3246	1.7253	2.6251	9	60	-0.115410851511328	1	0
"61"	9	45	1	-1	-2.145	1	2	-1	1	0.591	-5.9072	2.5994	-0.1232	2.7497	0.5423	-8.6297	-4.4467	-0.5442	0.8753	-0.7471	-0.3217	1.913	-7.8302	3.3713	-9.8429	-0.4187	-10.8794	-2.1074	5.4997	-9.2471	0.333	0.333	0.333	0.333	0.333	0.333	0.333	0.333	0.333	0.333	0.333	0.333	0.333	0.333	0.333	0.333	0.333	0.333	0.333	6.327	1.5304	2.1254	9	61	-0.525939261576039	0	1
"62"	9	67	1	0	0	0	3	-1	1	0.971	-1.4768	-0.2933	0.2198	-4.385	5.6608	3.9954	-3.9346	-0.902	-2.0449	1.6793	3.6123	8.4413	0.3358	-8.6841	7.6291	3.1204	-3.6813	-11.8919	1.2039	2.9218	0.2946	0.3955	0.3083	0.2668	0.3376	0.2217	0.5318	0.2814	0.3808	0.4897	0.2298	0.3042	0.2371	0.3787	0.4872	0.3665	0.2751	0.3308	0.2059	6.3234	1.5748	2.538	9	62	-0.0294288106908122	0	1
"63"	9	54	1	1	2.145	0	4	1	1	1.546	4.5672	-1.8384	8.6276	8.453	0.1348	-5.3428	3.7856	-2.4941	6.5888	-6.2812	-2.2558	7.2209	5.5891	-0.2759	6.23	-0.4417	8.6658	4.6154	-6.8402	2.2117	0.2095	0.3479	0.5307	0.4717	0.3394	0.3057	0.3725	0.2279	0.3042	0.256	0.4984	0.3816	0.4144	0.2072	0.377	0.2043	0.2349	0.3947	0.2534	6.3313	1.707	3.2638	9	63	0.43567095016523	1	0
"64"	9	5	1	1	2.145	1	3	1	1	0.96	2.0818	7.1861	-1.4525	7.5754	4.0451	-4.852	10.3889	-6.0033	3.0569	-5.4232	-4.8059	4.9656	1.0796	7.6055	3.4905	1.89	9.1473	4.1199	0.7086	-3.1343	0.333	0.333	0.333	0.333	0.333	0.333	0.333	0.333	0.333	0.333	0.333	0.333	0.333	0.333	0.333	0.333	0.333	0.333	0.333	6.327	1.4075	2.3779	9	64	-0.0408219945202552	1	0
"65"	9	8	1	-4	-8.58	0	3	-1	1	0.888	-7.0327	-10.7508	-6.9239	-12.0697	-10.1892	-7.6615	-9.4517	-6.1419	-3.9126	-9.5151	-9.3008	-0.0575	-2.0419	-11.8314	-11.6043	-3.3543	-3.4382	-21.5434	-10.8875	-14.846	0.2837	0.4904	0.5233	0.2052	0.391	0.2476	0.3048	0.2154	0.3447	0.248	0.2963	0.3524	0.3124	0.2854	0.485	0.2071	0.4252	0.3437	0.3745	6.336	1.5165	2.4225	9	65	-0.118783535989967	0	1
"66"	9	66	1	-1	-2.145	0	7	-1	1	1.869	-0.5827	-1.157	-10.7668	-13.5135	-3.2683	-1.8173	-2.4893	1.6061	2.9069	4.3695	-3.7257	2.4295	-10.8879	-3.6218	-3.8701	0.647	5.3592	1.1251	-2.0392	-3.1217	0.2897	0.2058	0.3491	0.376	0.3247	0.2269	0.4342	0.1999	0.3773	0.4289	0.3777	0.3494	0.2019	0.4487	0.3982	0.2582	0.2139	0.4835	0.3875	6.3316	1.6329	3.5194	9	66	0.625403528473426	0	1
"67"	9	6	1	2	4.29	1	3	1	1	0.995	8.4401	9.7017	13.5784	5.6359	3.0779	-0.7251	3.1707	1.749	12.0455	3.044	-2.8026	4.675	2.8966	2.201	-3.2987	-0.9647	10.0976	8.7484	-1.7268	4.3033	0.333	0.333	0.333	0.333	0.333	0.333	0.333	0.333	0.333	0.333	0.333	0.333	0.333	0.333	0.333	0.333	0.333	0.333	0.333	6.327	1.6077	2.6122	9	67	-0.00501254182354429	1	0
"68"	9	33	1	1	2.145	1	4	1	1	1.032	-1.203	5.0084	6.8623	-1.5021	-3.1361	1.2345	-0.5456	3.611	3.8239	-4.2138	-6.5606	1.3674	5.5488	8.5245	13.6938	0.7645	4.0088	-1.6181	8.8055	-1.7408	0.333	0.333	0.333	0.333	0.333	0.333	0.333	0.333	0.333	0.333	0.333	0.333	0.333	0.333	0.333	0.333	0.333	0.333	0.333	6.327	1.5092	2.5498	9	68	0.031498667059371	1	0
"69"	9	49	1	4	8.58	1	3	1	1	0.863	9.3321	12.8713	8.2085	14.1398	9.1888	1.1793	12.2456	17.1424	3.9994	4.1937	2.2454	-2.358	8.1184	5.9878	11.1263	5.6944	15.2246	9.0261	12.5755	10.9039	0.333	0.333	0.333	0.333	0.333	0.333	0.333	0.333	0.333	0.333	0.333	0.333	0.333	0.333	0.333	0.333	0.333	0.333	0.333	6.327	1.4303	2.2974	9	69	-0.147340587898709	1	0
"70"	9	34	1	2	4.29	1	4	1	1	1.042	2.2374	8.0067	7.5694	5.3288	6.0109	12.5481	1.1455	6.2996	-6.6462	-1.7045	8.6832	6.3312	5.5801	7.8279	2.3637	9.0067	1.196	-5.5656	0.2472	8.2514	0.333	0.333	0.333	0.333	0.333	0.333	0.333	0.333	0.333	0.333	0.333	0.333	0.333	0.333	0.333	0.333	0.333	0.333	0.333	6.327	1.6018	2.6591	9	70	0.0411419433311752	1	0
"71"	9	28	2	4	8.58	0	4	1	1	1.248	10.139	6.8515	13.4341	11.2593	10.6367	5.1904	1.1991	1.5287	12.3262	3.7608	-0.0052	16.2058	11.4338	15.801	3.9089	7.0026	11.8627	7.0693	6.7311	15.462	0.3839	0.2697	0.3773	0.2387	0.4906	0.2611	0.3754	0.3354	0.3789	0.3369	0.4152	0.2179	0.5103	0.2718	0.4481	0.2931	0.2241	0.2991	0.2067	6.3341	1.5906	2.8489	9	71	0.221542269947236	1	0
"72"	9	70	2	4	8.58	0	1	1	1	0.377	6.1949	10.654	5.8808	13.5603	0.0559	14.3921	8.4625	11.4839	17.0288	13.1365	17.7666	8.5415	9.0398	3.7486	5.0698	1.7556	7.0749	1.7997	8.0811	6.8722	0.4397	0.3665	0.2232	0.2801	0.316	0.2316	0.3354	0.2034	0.5058	0.274	0.4897	0.3479	0.2373	0.2885	0.2317	0.4565	0.201	0.3992	0.4936	6.321	1.7017	2.0779	9	72	-0.975510091534126	1	0
"73"	9	15	2	-4	-8.58	1	3	-1	1	0.932	-13.5536	-5.2545	-6.4987	-5.9374	-11.8386	-5.1608	-21.7002	-2.7497	-10.6819	-7.007	-8.2065	0.2137	-5.9368	-13.0254	-14.1979	-7.134	-6.3677	-10.844	-13.3755	-3.5197	0.333	0.333	0.333	0.333	0.333	0.333	0.333	0.333	0.333	0.333	0.333	0.333	0.333	0.333	0.333	0.333	0.333	0.333	0.333	6.327	1.5006	2.4492	9	73	-0.0704224642965458	0	1
"74"	9	38	2	-1	-2.145	0	3	-1	1	0.821	-6.0069	-1.2032	-1.1914	1.2221	-6.1919	-3.7186	13.0182	0.8932	-4.1386	-6.3863	-0.7367	-3.2403	-4.5957	-13.5305	-3.4481	-1.551	-1.1671	0.3767	-1.6441	1.6554	0.2047	0.5031	0.2472	0.515	0.4823	0.2143	0.5104	0.2767	0.2096	0.461	0.2493	0.3321	0.3902	0.2269	0.2792	0.2273	0.3891	0.2057	0.4113	6.3356	1.4454	2.288	9	74	-0.197232169529709	0	1
"75"	9	61	2	1	2.145	1	4	1	1	1.017	0.5058	5.8686	15.1429	7.5886	-0.6595	-2.7742	-1.7863	3.7115	-3.1888	-1.6568	6.6035	-0.1564	9.4855	-0.3541	1.3519	0.4515	2.8367	1.2951	-5.9899	4.4288	0.333	0.333	0.333	0.333	0.333	0.333	0.333	0.333	0.333	0.333	0.333	0.333	0.333	0.333	0.333	0.333	0.333	0.333	0.333	6.327	1.4103	2.4346	9	75	0.0168571170664228	1	0
"76"	9	50	2	-4	-8.58	0	2	-1	1	0.552	-10.8219	-5.2594	-17.1321	-7.4912	-14.2294	-17.656	-10.1482	-8.4995	-12.8393	-7.0774	-5.8519	0.6964	-3.7433	-8.1608	-9.7322	-9.1618	3.3137	-9.7975	-8.0362	-9.2213	0.4381	0.3103	0.4152	0.2288	0.383	0.4587	0.2625	0.2365	0.2071	0.4802	0.4162	0.3167	0.3847	0.3317	0.4368	0.2873	0.2119	0.3198	0.2112	6.3367	1.4221	1.9863	9	76	-0.594207232705042	0	1
"77"	9	57	2	-4	-8.58	1	3	-1	1	0.667	-5.0064	-8.5817	-8.6633	-5.5198	-16.4254	-12.1313	-1.4224	-10.281	-6.5269	-3.6379	-12.6295	0.6195	-13.7953	-4.9035	-11.3525	-18.6879	-4.7574	-11.8407	-7.0961	-7.8969	0.333	0.333	0.333	0.333	0.333	0.333	0.333	0.333	0.333	0.333	0.333	0.333	0.333	0.333	0.333	0.333	0.333	0.333	0.333	6.327	1.5314	2.2181	9	77	-0.404965233066513	0	1
"78"	9	30	2	-2	-4.29	1	2	-1	1	0.566	-8.3175	-7.5693	-2.3906	-12.8505	-11.4842	-9.2819	-4.5049	-6.6368	0.7072	-4.941	-7.2601	1.7706	6.5758	-0.1693	-5.2922	-6.9752	-4.9002	2.0885	0.7183	-6.1616	0.333	0.333	0.333	0.333	0.333	0.333	0.333	0.333	0.333	0.333	0.333	0.333	0.333	0.333	0.333	0.333	0.333	0.333	0.333	6.327	1.6983	2.2837	9	78	-0.569161200778954	0	1
"79"	9	29	2	-4	-8.58	1	2	-1	1	0.586	-9.649	-12.8668	-21.1035	-8.9698	-11.3189	-1.649	-3.8364	-14.8492	-7.8189	-5.6037	-3.6965	-5.2233	-5.1708	-12.3211	-3.2326	-16.0435	-3.9691	-4.9283	-11.1575	-10.1366	0.333	0.333	0.333	0.333	0.333	0.333	0.333	0.333	0.333	0.333	0.333	0.333	0.333	0.333	0.333	0.333	0.333	0.333	0.333	6.327	1.6099	2.2032	9	79	-0.534435489405125	0	1
"80"	9	27	2	2	4.29	0	3	1	1	0.66	5.6502	4.4605	-1.3025	4.5056	-1.3425	6.7455	3.6927	8.9775	7.1476	3.5969	0.0258	5.4864	8.089	3.3859	-7.0386	3.6212	14.8224	1.3434	13.1504	-0.9225	0.242	0.2028	0.3681	0.2612	0.4004	0.2474	0.2144	0.3056	0.2255	0.5159	0.2427	0.3721	0.4841	0.3308	0.2149	0.3625	0.3235	0.531	0.491	6.3359	1.479	2.1445	9	80	-0.415515443961666	1	0
"81"	9	9	2	-2	-4.29	0	4	-1	1	1.024	-3.571	-8.595	-0.3895	-6.585	-10.3271	2.2156	-2.8649	-12.9375	-0.0342	3.4053	-9.8428	-6.4419	-3.4435	-3.4389	-5.8331	-0.0676	-14.3075	-1.0002	-2.0305	0.8306	0.467	0.2512	0.2097	0.3368	0.2809	0.3237	0.412	0.2263	0.5248	0.4082	0.4979	0.2823	0.3569	0.221	0.2765	0.2291	0.5023	0.3187	0.2064	6.3315	1.6332	2.658	9	81	0.0237165266173161	0	1
"82"	9	64	2	-4	-8.58	0	3	-1	1	0.553	-10.71	-14.2801	4.1127	-12.0081	-11.6258	-11.4034	-3.1218	-12.745	-0.1391	-14.3932	-8.616	-7.0644	-13.513	-6.2997	-7.0713	-13.8914	-5.3444	-6.5504	-3.538	-11.4949	0.2275	0.2619	0.2281	0.3466	0.5314	0.245	0.362	0.2305	0.2613	0.2118	0.3763	0.4859	0.3088	0.2224	0.5152	0.3731	0.324	0.4963	0.3259	6.3338	1.4075	1.9702	9	82	-0.592397277459802	0	1
"83"	9	6	2	2	4.29	1	4	1	1	1.044	5.3764	1.4035	5.2397	3.7446	15.6866	-0.2117	7.398	10.1233	-1.8364	7.9715	5.7942	2.5449	-6.8737	-2.4878	9.0681	7.3403	3.0251	6.7565	3.9135	3.6019	0.333	0.333	0.333	0.333	0.333	0.333	0.333	0.333	0.333	0.333	0.333	0.333	0.333	0.333	0.333	0.333	0.333	0.333	0.333	6.327	1.4614	2.5115	9	83	0.043059489460447	1	0
"84"	9	24	2	-1	-2.145	0	3	-1	1	0.92	-3.1137	-7.3985	-8.2709	1.5994	-0.299	-7.3735	0.9417	-10.0656	-0.6374	1.2586	11.1117	-6.7161	-6.377	-4.9729	-2.2783	2.3729	-3.1641	-3.0883	0.3797	2.2922	0.4525	0.2403	0.4154	0.265	0.415	0.2062	0.3816	0.2259	0.4454	0.2322	0.2576	0.3177	0.4686	0.309	0.5297	0.478	0.2001	0.2729	0.2056	6.3186	1.4735	2.4038	9	84	-0.083381608939051	0	1
"85"	9	12	2	1	2.145	0	3	1	1	0.656	3.3728	11.682	-3.2839	3.3058	1.9011	-5.1393	5.8157	5.4341	-3.0803	7.0979	-4.8012	4.074	-3.6246	0.4466	4.5869	6.4088	0.1447	-2.7958	10.1573	1.5384	0.2581	0.3198	0.3561	0.4551	0.228	0.2573	0.4504	0.3406	0.4035	0.3515	0.2069	0.4206	0.2047	0.4958	0.2996	0.2198	0.2536	0.4452	0.3555	6.3223	1.5419	2.2068	9	85	-0.421594490038048	1	0
"86"	9	7	2	4	8.58	1	3	1	1	0.696	9.0254	16.0566	5.0931	9.6016	7.2212	8.0767	2.0646	11.5777	-3.7027	10.1722	4.8164	1.761	15.1525	8.8	8.1463	15.6402	8.0748	12.4967	8.2412	13.3323	0.333	0.333	0.333	0.333	0.333	0.333	0.333	0.333	0.333	0.333	0.333	0.333	0.333	0.333	0.333	0.333	0.333	0.333	0.333	6.327	1.6814	2.3799	9	86	-0.362405618647717	1	0
"87"	9	65	2	-2	-4.29	0	14	-1	1	4.181	-0.3078	-0.2209	-12.1829	0.9518	-9.9661	-1.2854	-3.6859	-15.2995	-5.4484	-4.1229	-8.519	-3.4987	1.3138	2.1399	4.5208	-7.828	-3.947	-6.8992	-2.6795	-7.6513	0.2123	0.3074	0.2683	0.2406	0.4121	0.2823	0.3245	0.4868	0.3157	0.4772	0.2477	0.2205	0.2807	0.4206	0.3112	0.2014	0.5264	0.4714	0.3167	6.3241	1.5305	5.715	9	87	1.43055045237443	0	1
"88"	9	26	2	1	2.145	0	6	-1	0	1.736	1.0962	-8.4344	7.8602	9.6252	-1.9583	-3.8008	-5.9681	3.7401	8.0755	3.4022	2.9252	11.0688	1.9168	1.516	3.268	-1.3124	1.5096	2.7666	-0.6533	5.0735	0.2214	0.3714	0.4439	0.3142	0.2856	0.3495	0.4098	0.4897	0.286	0.3512	0.4671	0.3208	0.3478	0.2195	0.3068	0.2026	0.2742	0.3141	0.3458	6.3215	1.725	3.4698	9	88	0.551583616238158	0	1
"89"	9	23	2	-2	-4.29	0	6	-1	1	2.02	-7.553	-16.4645	3.627	-0.6037	-6.8634	-4.4039	-1.4164	-6.8648	-8.2775	-4.8935	-11.3227	4.5949	-1.6856	-4.3609	0.7328	0.2685	-4.0666	-4.8558	-2.7139	-7.9729	0.4495	0.3148	0.2617	0.2043	0.309	0.4854	0.2117	0.2886	0.3547	0.3159	0.2515	0.4574	0.2584	0.3781	0.5138	0.2842	0.2371	0.41	0.3498	6.3358	1.6301	3.6708	9	89	0.703097511413113	0	1
"90"	9	63	2	4	8.58	1	4	1	1	1.235	8.8449	4.1879	0.8715	10.676	16.1292	12.6565	6.5652	16.6365	13.2473	12.8247	17.2545	6.0409	11.598	3.2656	2.9104	4.669	4.5133	6.0589	7.8474	3.8489	0.333	0.333	0.333	0.333	0.333	0.333	0.333	0.333	0.333	0.333	0.333	0.333	0.333	0.333	0.333	0.333	0.333	0.333	0.333	6.327	1.4147	2.6691	9	90	0.211070970079941	1	0
"91"	9	62	2	2	4.29	1	4	1	1	1.032	3.6252	2.1273	5.6503	6.0631	5.7321	9.4846	-2.747	-3.6342	-0.9763	-4.5545	6.3009	3.1169	8.4537	4.3622	5.821	5.2331	10.4544	14.515	6.2304	-1.3576	0.333	0.333	0.333	0.333	0.333	0.333	0.333	0.333	0.333	0.333	0.333	0.333	0.333	0.333	0.333	0.333	0.333	0.333	0.333	6.327	1.7149	2.7664	9	91	0.031498667059371	1	0
"92"	9	36	2	-4	-8.58	0	3	-1	1	0.939	-10.3469	-16.1609	-6.9014	-3.8858	-5.4039	-1.9363	-8.213	-7.2712	-10.6314	-10.5995	-13.5334	0.8143	-5.9945	-9.5981	-12.6612	-17.7726	-4.1549	-10.4214	-2.1671	-13.7795	0.2486	0.4795	0.4481	0.4197	0.2046	0.3795	0.3001	0.2035	0.4169	0.3872	0.2822	0.4311	0.2911	0.3822	0.4851	0.2375	0.2953	0.2011	0.2326	6.3259	1.7302	2.6897	9	92	-0.0629397997738742	0	1
"93"	9	18	2	0	0	1	5	-1	1	1.484	-3.2777	1.7921	-3.8838	-1.1766	0.808	1.4812	2.0089	-2.3999	10.2795	6.2515	-2.7337	-5.6301	-8.3459	5.072	-3.7338	-7.9495	-2.4744	7.3057	5.2048	1.2942	0.333	0.333	0.333	0.333	0.333	0.333	0.333	0.333	0.333	0.333	0.333	0.333	0.333	0.333	0.333	0.333	0.333	0.333	0.333	6.327	1.5039	3.0017	9	93	0.394741144745189	0	1
"94"	9	55	2	2	4.29	0	8	1	1	2.309	3.1441	-2.6587	4.0484	-1.7283	5.9425	2.4129	1.8608	-1.0348	4.9314	3.2342	1.6498	17.5859	12.4908	1.108	7.7318	2.6545	4.9185	9.3762	8.1549	0.5	0.273	0.2213	0.4548	0.2791	0.2133	0.5045	0.3309	0.2385	0.505	0.3286	0.2928	0.5051	0.402	0.2663	0.2201	0.2626	0.3918	0.4347	0.2095	6.334	1.5832	3.9099	9	94	0.836814530372358	1	0
"95"	9	35	2	4	8.58	1	4	1	1	1.22	4.5276	16.6373	3.0677	-0.2643	7.4648	9.8909	7.0139	13.8046	13.9735	9.1635	7.3449	16.4868	13.4272	4.4899	0.5529	13.3824	11.4909	8.799	5.8059	3.278	0.333	0.333	0.333	0.333	0.333	0.333	0.333	0.333	0.333	0.333	0.333	0.333	0.333	0.333	0.333	0.333	0.333	0.333	0.333	6.327	1.4626	2.6878	9	95	0.198850858745165	1	0
"96"	9	8	2	-4	-8.58	0	5	1	0	1.734	-4.9671	-2.8814	-15.2128	-1.7477	-7.9216	-3.6748	-13.3354	-11.0909	-16.5293	-2.9253	-13.5217	-10.8759	-8.3456	-12.1995	-1.5043	-11.2896	-4.707	-13.5354	-12.6085	-4.4138	0.4553	0.3143	0.2114	0.2743	0.5308	0.3345	0.288	0.3603	0.5206	0.359	0.432	0.3459	0.2243	0.2858	0.202	0.3086	0.2387	0.2032	0.4378	6.3268	1.4124	3.151	9	96	0.55043087835835	1	0
"97"	9	40	2	1	2.145	0	4	1	1	1.372	-2.2174	11.9635	3.6501	-0.616	-3.0056	-1.5447	-11.0295	0.7629	11.1541	5.6987	2.3913	3.0556	-1.9294	4.2053	4.8221	2.3589	3.0408	6.867	2.5785	0.6807	0.4822	0.3233	0.4276	0.2184	0.3141	0.2183	0.2473	0.4585	0.305	0.2477	0.3331	0.2245	0.4303	0.2331	0.4722	0.3177	0.453	0.2919	0.3376	6.3358	1.4004	2.7722	9	97	0.316269529303694	1	0
"98"	9	31	2	-1	-2.145	1	7	1	0	2.176	-4.884	4.1001	-2.7404	-4.975	-9.1525	-5.3079	2.3708	-0.6063	-9.1029	-4.2626	-1.1286	-4.6153	-4.1157	-2.8959	4.8968	2.7027	-1.3321	9.7516	-2.3882	-9.5448	0.333	0.333	0.333	0.333	0.333	0.333	0.333	0.333	0.333	0.333	0.333	0.333	0.333	0.333	0.333	0.333	0.333	0.333	0.333	6.327	1.5939	3.7763	9	98	0.777488328993696	1	0
"99"	9	41	2	2	4.29	0	9	1	1	2.819	4.9109	-2.2118	3.9004	7.5345	2.8225	8.7972	6.9508	5.7701	7.3859	10.489	9.3421	-4.8807	0.505	-2.6019	-0.6672	4.5424	2.0484	15.1529	5.825	1.4375	0.3171	0.2827	0.2168	0.4911	0.2214	0.3385	0.4969	0.2363	0.4637	0.2317	0.2701	0.2296	0.356	0.4358	0.2139	0.5236	0.2318	0.4437	0.318	6.3187	1.5311	4.3528	9	99	1.03638221213198	1	0
"100"	9	5	2	1	2.145	1	8	1	1	2.538	5.7055	3.7217	2.0469	4.1916	7.9748	-0.3728	6.4545	-7.8491	-1.2903	8.2442	-4.1816	8.882	3.57	5.9001	0.0419	6.4301	-3.0429	-6.6447	4.141	-0.5583	0.333	0.333	0.333	0.333	0.333	0.333	0.333	0.333	0.333	0.333	0.333	0.333	0.333	0.333	0.333	0.333	0.333	0.333	0.333	6.327	1.7264	4.2717	9	100	0.931376369292196	1	0
"101"	9	51	2	-2	-4.29	0	10	-1	1	3.021	-0.8767	1.2919	-0.2064	-3.0012	-7.6089	-3.9043	-11.5099	-8.8253	0.5058	-0.7731	-5.7595	-7.1296	-4.5357	-8.5596	10.7938	-6.6536	-5.3164	-9.9584	-7.6071	-6.2338	0.3265	0.2303	0.3935	0.3029	0.4636	0.2467	0.3196	0.2103	0.4742	0.2089	0.4419	0.2347	0.4843	0.2499	0.3435	0.456	0.211	0.2967	0.4409	6.3354	1.4301	4.4554	9	101	1.10558790240453	0	1
"102"	9	68	2	1	2.145	0	8	-1	0	2.669	5.8018	0.4971	3.4821	4.1855	12.9597	-4.7555	-5.8108	2.7363	-0.2288	8.0205	2.1799	-0.8069	2.6171	-0.7452	6.4199	6.1691	2.3007	-1.3507	6.6253	-7.6641	0.2807	0.422	0.2272	0.4515	0.2709	0.4166	0.5225	0.2985	0.2061	0.4804	0.2091	0.4433	0.2764	0.3074	0.2351	0.4958	0.2139	0.2958	0.2646	6.318	1.6037	4.2698	9	102	0.981703870422387	0	1
"103"	9	52	2	-1	-2.145	0	5	-1	1	1.602	-0.4881	4.3629	-4.6396	-4.2638	2.1377	7.4926	-5.1539	0.5035	-2.2685	3.5168	-8.8366	-5.7092	-7.2257	2.5278	-6.7286	-3.4346	-1.4601	-12.0374	1.5372	-3.8798	0.2919	0.2392	0.5164	0.2398	0.3598	0.3185	0.2376	0.4197	0.2039	0.441	0.4101	0.3157	0.2735	0.4764	0.2827	0.4623	0.3513	0.2676	0.2243	6.3317	1.4492	3.0692	9	103	0.471252848646168	0	1
"104"	9	21	2	4	8.58	1	3	1	1	0.954	8.4539	21.0985	1.399	-1.0967	8.8848	10.4346	6.7159	14.3335	7.4686	13.3492	6.5108	9.2187	4.5864	9.0681	10.7257	7.7707	15.0932	8.5742	2.2599	7.46	0.333	0.333	0.333	0.333	0.333	0.333	0.333	0.333	0.333	0.333	0.333	0.333	0.333	0.333	0.333	0.333	0.333	0.333	0.333	6.327	1.6634	2.6384	9	104	-0.0470916075338506	1	0
"105"	9	43	2	-4	-8.58	1	4	-1	1	1.154	-9.2105	1.0751	-4.4106	-10.192	-6.7596	-2.9718	-19.0689	-10.6678	-13.8601	-11.8433	-6.0283	-9.3358	-11.601	-5.5686	-6.5271	-13.1924	-1.1843	-4.4294	-12.8979	-14.9163	0.333	0.333	0.333	0.333	0.333	0.333	0.333	0.333	0.333	0.333	0.333	0.333	0.333	0.333	0.333	0.333	0.333	0.333	0.333	6.327	1.5198	2.6883	9	105	0.143234168085908	0	1
"106"	9	34	2	2	4.29	1	5	1	1	1.499	1.2876	9.6414	11.7317	0.9973	3.9295	2.4118	3.2104	-0.7918	10.2821	4.6359	6.1728	1.2025	7.2891	-8.8035	8.5367	3.9679	8.3261	10.8279	-2.1589	2.3509	0.333	0.333	0.333	0.333	0.333	0.333	0.333	0.333	0.333	0.333	0.333	0.333	0.333	0.333	0.333	0.333	0.333	0.333	0.333	6.327	1.5768	3.0829	9	106	0.404798219120461	1	0
"107"	9	14	2	4	8.58	0	4	1	1	1.24	9.6844	16.9655	10.51	15.4881	10.3772	8.1746	10.823	3.7106	17.8393	8.2403	10.199	2.2298	10.8037	5.4262	3.362	2.8785	2.9575	10.1135	0.4636	12.9864	0.4335	0.4617	0.2506	0.5123	0.3277	0.3826	0.208	0.2441	0.3418	0.2572	0.2901	0.2325	0.3412	0.4018	0.4365	0.2029	0.5245	0.2053	0.2691	6.3233	1.5217	2.7737	9	107	0.215111379616945	1	0
"108"	9	22	2	-4	-8.58	0	6	-1	1	1.841	-6.7294	-12.4557	-7.6603	-4.7279	-1.5367	-12.569	-12.9568	-8.2785	-15.4872	-5.2254	-11.6829	-5.0725	-12.9097	-5.8844	-4.7821	-10.9995	-1.8317	-19.6154	-11.8675	-1.0743	0.2138	0.4452	0.3939	0.3046	0.2437	0.3236	0.4759	0.4378	0.2632	0.4107	0.2016	0.2456	0.3413	0.219	0.3301	0.4851	0.2186	0.3086	0.4673	6.3296	1.6631	3.508	9	108	0.610308902250941	0	1
"109"	9	13	2	2	4.29	0	6	1	1	1.563	2.3981	4.8962	3.0381	12.0915	14.8687	3.7836	0.5575	-0.0453	1.9978	5.0188	5.3496	-6.7023	2.6984	6.0758	7.9623	8.767	9.5889	-3.8663	5.5617	1.5755	0.2217	0.4303	0.2429	0.3606	0.2243	0.4491	0.2904	0.3659	0.28	0.3313	0.261	0.3971	0.4351	0.3378	0.2791	0.3628	0.2678	0.4848	0.3044	6.3263	1.5901	3.1637	9	109	0.44660705143934	1	0
"110"	9	25	2	0	0	0	8	1	1	2.309	4.8515	2.1752	-1.9747	2.0737	-4.2856	-1.1245	6.7	8.9508	-1.3876	7.446	-0.3951	-8.3265	-4.6296	3.5462	-3.4751	-10.1616	0.3006	1.8262	-3.4549	-0.225	0.3212	0.2541	0.4241	0.3274	0.256	0.2943	0.3868	0.2257	0.481	0.3509	0.2706	0.4044	0.2699	0.5178	0.2637	0.3406	0.4131	0.2954	0.2271	6.3242	1.6192	3.9432	9	110	0.836814530372358	1	0
"111"	9	17	2	-1	-2.145	1	5	1	0	1.583	2.1379	3.587	4.1942	-6.2025	-7.1648	-0.8399	-0.8368	-8.85	-3.8834	-2.3396	1.9312	0.7642	0.3636	-10.4641	4.3557	-13.6931	-4.4694	-2.5348	-0.9465	1.93	0.333	0.333	0.333	0.333	0.333	0.333	0.333	0.333	0.333	0.333	0.333	0.333	0.333	0.333	0.333	0.333	0.333	0.333	0.333	6.327	1.5029	3.1001	9	111	0.459321780898875	1	0
"112"	9	59	2	-1	-2.145	1	4	-1	1	1.148	-4.1135	-4.257	-3.0608	1.6932	-6.3123	-4.8256	-2.4783	-11.6688	-7.1786	5.8268	-0.8353	-9.1948	2.8519	-2.3533	-4.3124	-3.1984	1.2825	7.4825	5.857	-2.7957	0.333	0.333	0.333	0.333	0.333	0.333	0.333	0.333	0.333	0.333	0.333	0.333	0.333	0.333	0.333	0.333	0.333	0.333	0.333	6.327	1.4019	2.5484	9	112	0.138021297897375	0	1
"113"	9	69	2	2	4.29	0	4	1	1	1.245	1.333	8.1056	2.4073	6.3527	7.4283	-5.457	15.1309	-0.6068	5.1513	7.6393	1.6583	4.593	-1.4148	8.9007	5.0546	-0.3732	0.4109	9.1359	-2.1216	10.7759	0.312	0.2713	0.3051	0.3946	0.3057	0.503	0.2994	0.3712	0.3358	0.2288	0.3818	0.2148	0.4077	0.3085	0.229	0.4014	0.3041	0.457	0.2904	6.3215	1.4926	2.7453	9	113	0.219135529916671	1	0
"114"	9	10	2	-1	-2.145	0	19	-1	1	6.236	-5.9906	7.6304	-2.3904	-10.6901	7.6664	-5.3118	-3.3807	2.2068	-4.8969	-3.4221	2.5676	-0.2672	-1.5962	-4.3994	-7.2178	-2.807	-0.2884	3.4148	-10.9207	-1.9271	0.3486	0.3754	0.4684	0.2038	0.4468	0.2302	0.4578	0.3331	0.2043	0.2528	0.2236	0.3046	0.2095	0.3903	0.2293	0.4795	0.2574	0.3873	0.5155	6.3183	1.6343	7.8703	9	114	1.83033895119553	0	1
"115"	9	1	2	-4	-8.58	1	3	-1	1	0.915	-3.8696	-7.6071	-6.3474	-8.2331	-13.2411	-7.8878	3.4059	-4.6765	-9.4746	-14.1936	-2.6575	-21.0182	-6.3581	-11.7618	-11.6965	-6.0375	-10.618	-6.3005	-9.508	-12.2534	0.333	0.333	0.333	0.333	0.333	0.333	0.333	0.333	0.333	0.333	0.333	0.333	0.333	0.333	0.333	0.333	0.333	0.333	0.333	6.327	1.7011	2.6162	9	115	-0.0888312137066157	0	1
"116"	9	2	2	-2	-4.29	1	3	-1	1	0.95	-6.6857	-0.151	-9.5442	2.4729	0.8129	-12.3393	-8.4964	0.6313	-6.2422	-7.6278	-0.2383	-1.4524	-7.3812	-0.1401	-0.9104	-2.8206	-11.5466	-14.0833	0.6878	-1.4672	0.333	0.333	0.333	0.333	0.333	0.333	0.333	0.333	0.333	0.333	0.333	0.333	0.333	0.333	0.333	0.333	0.333	0.333	0.333	6.327	1.5524	2.5173	9	116	-0.0512932943875506	0	1
"117"	9	60	2	0	0	1	3	-1	0	0.9	1.8306	-2.5674	1.0533	-0.4838	-3.9266	-6.2657	-9.9077	-0.6794	2.3234	-5.9491	-0.5694	2.6866	-4.2964	-2.0472	-3.197	9.9732	4.6102	7.3447	3.0536	8.0223	0.333	0.333	0.333	0.333	0.333	0.333	0.333	0.333	0.333	0.333	0.333	0.333	0.333	0.333	0.333	0.333	0.333	0.333	0.333	6.327	1.5299	2.4506	9	117	-0.105360515657826	0	1
"118"	9	19	2	1	2.145	1	6	1	1	1.883	4.0389	-1.6775	-2.2112	4.5361	1.1726	3.2947	-6.2884	5.3693	2.657	10.2602	6.3683	6.4905	-1.9528	3.2795	-4.1513	-0.7172	12.8903	4.3749	-5.5051	0.0671	0.333	0.333	0.333	0.333	0.333	0.333	0.333	0.333	0.333	0.333	0.333	0.333	0.333	0.333	0.333	0.333	0.333	0.333	0.333	6.327	1.4614	3.3672	9	118	0.632866249675015	1	0
"119"	9	3	2	-1	-2.145	1	11	-1	1	3.609	1.5055	-8.4564	-13.3657	-3.5652	4.5483	0.8059	-8.4881	2.2464	1.3432	-2.3098	-7.7814	0.0496	0.9822	-5.5665	3.5157	-6.3195	-0.9476	5.9875	-4.6463	-4.0143	0.333	0.333	0.333	0.333	0.333	0.333	0.333	0.333	0.333	0.333	0.333	0.333	0.333	0.333	0.333	0.333	0.333	0.333	0.333	6.327	1.5989	5.2267	9	119	1.28343072566065	0	1
"120"	9	37	2	-2	-4.29	0	6	-1	1	1.791	-5.2329	-3.0644	-2.5842	-10.4759	-4.7977	1.1923	-7.2568	1.0541	-6.4222	3.1142	-3.2522	-14.3091	-9.7053	-4.8196	-1.1365	-0.4214	1.2628	-9.4221	1.1321	-12.6509	0.4446	0.2281	0.4662	0.3034	0.3454	0.4635	0.3887	0.3127	0.2761	0.457	0.2266	0.3644	0.2293	0.3121	0.2149	0.3754	0.3191	0.232	0.3642	6.3238	1.6952	3.4917	9	120	0.582774123078575	0	1
"121"	9	56	2	4	8.58	0	5	1	1	1.367	9.0178	13.0204	-0.8024	12.2168	10.5708	10.3534	5.7609	11.092	2.0337	20.5281	0.2229	8.758	11.1872	9.8773	13.4447	7.814	7.4803	9.7627	6.8086	3.614	0.3134	0.2881	0.4741	0.2519	0.3238	0.3511	0.2621	0.528	0.2904	0.2023	0.2955	0.5114	0.3127	0.397	0.242	0.4264	0.2346	0.351	0.2796	6.3356	1.4524	2.8347	9	121	0.312618557741813	1	0
"122"	9	58	2	-2	-4.29	1	7	-1	1	2.22	-5.5744	0.3259	-1.7581	-2.9285	-7.9232	-5.074	-9.0826	-4.7308	-15.3284	3.774	1.4419	-5.5822	-10.0853	4.8344	-9.6461	-4.4371	0.2482	-3.3864	-8.0636	-1.9616	0.333	0.333	0.333	0.333	0.333	0.333	0.333	0.333	0.333	0.333	0.333	0.333	0.333	0.333	0.333	0.333	0.333	0.333	0.333	6.327	1.4577	3.687	9	122	0.797507195884188	0	1
"123"	9	44	2	-2	-4.29	1	7	-1	1	2.04	-0.1557	-6.2224	-3.8629	-5.415	1.8129	-9.6727	1.0274	-6.8463	3.8544	-5.5931	-8.0555	-12.2804	-11.4206	-4.1564	-2.546	-1.26	-11.0968	3.0037	-0.2084	-7.0586	0.333	0.333	0.333	0.333	0.333	0.333	0.333	0.333	0.333	0.333	0.333	0.333	0.333	0.333	0.333	0.333	0.333	0.333	0.333	6.327	1.5193	3.5743	9	123	0.712949807856125	0	1
"124"	9	66	2	-1	-2.145	0	12	-1	1	3.486	-0.8155	-3.3407	-8.674	2.5077	8.9817	-2.7636	4.729	-2.3244	-7.5662	4.0206	-7.6145	-0.4909	0.3158	-2.4872	-7.378	1.6941	-4.8104	-7.6238	0.0707	-8.0825	0.2054	0.2888	0.2252	0.2605	0.5309	0.4322	0.2049	0.3888	0.3439	0.2882	0.2374	0.2624	0.3797	0.3199	0.4469	0.4957	0.26	0.4883	0.2748	6.3338	1.6475	5.1363	9	124	1.24875494709783	0	1
"125"	9	16	2	-2	-4.29	1	5	-1	1	1.659	-0.7961	-7.9958	-5.7938	-8.0758	-1.2408	-4.4874	-9.8048	-1.0948	-14.4489	-4.3285	-9.3632	-1.6552	2.9866	-10.4038	-4.4224	6.132	-6.0445	1.0456	-0.9898	-3.9667	0.333	0.333	0.333	0.333	0.333	0.333	0.333	0.333	0.333	0.333	0.333	0.333	0.333	0.333	0.333	0.333	0.333	0.333	0.333	6.327	1.451	3.1102	9	125	0.506215011208307	0	1
"126"	9	46	2	0	0	1	5	-1	0	1.577	-2.5226	0.2473	-10.4901	-1.8473	1.1858	5.0542	0.1638	6.3905	-1.421	7.4835	-6.6262	-2.119	5.3586	3.4899	-3.2232	-7.8483	7.315	1.0243	0.7115	-2.4647	0.333	0.333	0.333	0.333	0.333	0.333	0.333	0.333	0.333	0.333	0.333	0.333	0.333	0.333	0.333	0.333	0.333	0.333	0.333	6.327	1.4669	3.0447	9	126	0.455524307980901	0	1
"127"	9	39	2	0	0	0	12	-1	1	3.93	-4.8731	0.2432	-6.2125	2.7835	1.7265	-4.3988	-6.9314	-0.5464	7.865	-0.0092	-3.5305	2.0552	7.4576	-7.1414	0.4845	3.4674	8.8765	-5.7397	3.8335	1.2753	0.2105	0.4533	0.2719	0.4227	0.4801	0.2596	0.4788	0.2918	0.2199	0.3414	0.2166	0.2922	0.2575	0.3958	0.2847	0.3655	0.3401	0.2449	0.5038	6.3312	1.6631	5.5972	9	127	1.36863942588117	0	1
"128"	9	54	2	1	2.145	0	12	1	1	3.759	-1.5628	-7.0367	1.1655	0.1497	-0.7939	6.6962	8.3712	-0.59	1.234	12.1274	4.5228	8.3499	5.475	-0.3573	-3.1523	5.9382	1.7404	5.8323	-0.3241	-5.203	0.2271	0.5189	0.3008	0.2562	0.52	0.2042	0.2338	0.4733	0.2338	0.2991	0.2547	0.5201	0.3617	0.2509	0.2854	0.3484	0.4491	0.2524	0.3302	6.3201	1.4601	5.226	9	128	1.32415296458204	1	0
"129"	9	33	2	1	2.145	1	5	1	1	1.616	6.0916	2.1461	6.3881	-1.201	1.9942	1.728	4.087	6.9449	2.4838	6.8349	4.5042	4.0893	-3.8325	-3.9492	-7.3468	-5.935	0.7862	5.2452	-1.8506	12.4016	0.333	0.333	0.333	0.333	0.333	0.333	0.333	0.333	0.333	0.333	0.333	0.333	0.333	0.333	0.333	0.333	0.333	0.333	0.333	6.327	1.4267	3.0667	9	129	0.479953960098904	1	0
"130"	9	42	2	4	8.58	0	2	1	1	0.673	5.0122	12.6838	10.4471	11.8981	-1.882	4.8106	3.5424	16.6856	8.1881	4.2159	19.4459	7.2435	11.7763	8.8903	9.3206	4.5343	8.8881	1.4595	11.3602	11.4792	0.3343	0.4778	0.2764	0.2478	0.3329	0.4514	0.235	0.3316	0.3876	0.2842	0.3678	0.2195	0.2933	0.2336	0.5255	0.2768	0.3695	0.2355	0.4534	6.3337	1.6006	2.2907	9	130	-0.396009949337409	1	0
"131"	9	47	2	1	2.145	1	3	1	1	0.692	2.5605	6.5917	2.8542	-0.5516	3.0511	11.5338	-7.3134	-2.3463	4.8298	0.9937	-0.0126	4.4689	3.3946	-0.9065	-7.1754	3.3346	10.3342	2.3554	8.3094	-1.5731	0.333	0.333	0.333	0.333	0.333	0.333	0.333	0.333	0.333	0.333	0.333	0.333	0.333	0.333	0.333	0.333	0.333	0.333	0.333	6.327	1.4149	2.1261	9	131	-0.368169323364468	1	0
"132"	9	4	2	0	0	1	4	1	0	1.308	2.3791	2.6124	-8.2556	1.9869	-5.1893	7.1751	-7.9926	3.6239	-0.5397	-9.0735	-4.3663	6.1533	3.2932	0.9933	1.7279	-0.5597	5.7948	-0.7242	-4.0835	5.0765	0.333	0.333	0.333	0.333	0.333	0.333	0.333	0.333	0.333	0.333	0.333	0.333	0.333	0.333	0.333	0.333	0.333	0.333	0.333	6.327	1.4287	2.7422	9	132	0.268499253035007	1	0
"133"	9	48	2	2	4.29	1	5	1	1	1.511	8.4827	-0.52	8.1588	9.7224	-4.9037	4.1919	5.0694	4.1857	3.3966	6.447	6.5477	12.2731	11.1065	-0.9276	8.2315	2.2668	-2.5237	1.6688	6.803	-4.0935	0.333	0.333	0.333	0.333	0.333	0.333	0.333	0.333	0.333	0.333	0.333	0.333	0.333	0.333	0.333	0.333	0.333	0.333	0.333	6.327	1.5465	3.0615	9	133	0.412771683290602	1	0
"134"	9	67	2	0	0	0	4	1	1	1.173	3.1659	7.8402	7.4677	-2.3062	-3.9388	1.5923	2.4148	5.4196	-4.1474	-4.7077	0.2942	2.7234	-4.3776	3.0752	-3.6725	-9.1036	-8.4772	4.4639	-1.2383	3.8575	0.3367	0.283	0.3756	0.2705	0.4158	0.2136	0.5299	0.3734	0.3238	0.3502	0.2768	0.2332	0.3801	0.3403	0.2089	0.4982	0.2552	0.2175	0.4435	6.3261	1.5724	2.7568	9	134	0.159564569671338	1	0
"135"	9	49	2	4	8.58	1	4	1	1	1.036	4.2347	9.1029	4.0604	12.559	14.0925	10.1058	7.6382	6.577	2.4955	14.7832	15.3195	-5.7683	7.2731	13.1012	8.0857	6.1532	11.717	8.3532	7.7756	12.3213	0.333	0.333	0.333	0.333	0.333	0.333	0.333	0.333	0.333	0.333	0.333	0.333	0.333	0.333	0.333	0.333	0.333	0.333	0.333	6.327	1.4076	2.4536	9	135	0.0353671438372913	1	0
"136"	9	32	2	0	0	1	20	-1	1	6.874	1.4514	-6.0942	-1.2291	1.3191	0.6236	-8.4211	2.8195	-6.0628	-0.9964	-0.9721	-2.7485	5.3548	5.3615	8.4089	2.3968	-9.058	0.3082	2.659	7.7433	-3.3677	0.333	0.333	0.333	0.333	0.333	0.333	0.333	0.333	0.333	0.333	0.333	0.333	0.333	0.333	0.333	0.333	0.333	0.333	0.333	6.327	1.4644	8.3419	9	136	1.92774617842764	0	1
"137"	9	45	2	-1	-2.145	1	9	-1	1	2.787	-0.7174	-6.0589	8.9486	-1.9482	-11.2004	-1.9527	4.5519	-5.0484	-8.0285	-6.9467	-4.7175	1.4054	0.2857	2.7066	-5.0009	-2.408	-5.8142	-1.4174	5.0996	-4.4495	0.333	0.333	0.333	0.333	0.333	0.333	0.333	0.333	0.333	0.333	0.333	0.333	0.333	0.333	0.333	0.333	0.333	0.333	0.333	6.327	1.6927	4.488	9	137	1.02496574849981	0	1
"138"	9	53	2	0	0	0	11	-1	1	3.326	-0.305	-1.4782	1.2263	8.2481	-2.0569	3.7782	2.7319	4.0253	-1.5225	-2.6011	5.2936	-1.2553	-6.5737	-11.4681	2.6001	0.1319	-0.5083	9.424	-1.3803	-6.5406	0.2204	0.3351	0.4439	0.2336	0.2662	0.4098	0.2642	0.3385	0.2866	0.2434	0.4627	0.3983	0.4279	0.3727	0.3383	0.2373	0.3325	0.224	0.4965	6.3318	1.5075	4.8437	9	138	1.20177038077074	0	1
"139"	9	11	2	0	0	0	6	1	1	1.683	3.723	3.0349	6.8564	-4.8158	-5.6573	2.9678	4.0214	-1.9091	-4.4073	3.162	-2.5793	-6.3949	-5.8039	-6.8959	5.1421	-0.794	-1.0816	-2.8645	3.2547	10.4287	0.312	0.2121	0.416	0.2754	0.2357	0.3626	0.2572	0.505	0.3465	0.2839	0.4373	0.283	0.3152	0.5095	0.3914	0.3042	0.3616	0.2038	0.3184	6.3307	1.4484	3.1341	9	139	0.520577915208669	1	0
"140"	9	20	2	2	4.29	1	7	1	1	2.252	0.1614	11.5443	4.814	6.0504	4.46	7.545	8.0695	2.397	-3.0734	4.4101	-5.8086	7.0477	1.7307	-0.2863	11.3663	12.6823	2.0634	-0.8614	9.6159	3.5745	0.333	0.333	0.333	0.333	0.333	0.333	0.333	0.333	0.333	0.333	0.333	0.333	0.333	0.333	0.333	0.333	0.333	0.333	0.333	6.327	1.4749	3.7357	9	140	0.811818710277444	1	0
"141"	9	8	3	-4	-8.58	0	3	-1	1	0.805	-8.3594	-6.8404	-3.9557	-12.5833	-11.4781	-10.3006	-3.8659	-10.4352	-5.5968	-12.6907	-4.731	-9.9461	-4.5508	-5.4784	-14.7968	-22.0135	-6.5042	0.7954	-8.3214	-9.0868	0.3751	0.2193	0.3428	0.5046	0.3743	0.2859	0.3212	0.5174	0.3373	0.3854	0.2352	0.3565	0.216	0.2872	0.4024	0.2846	0.3268	0.2278	0.3328	6.3325	1.5514	2.372	9	141	-0.216913001563574	0	1
"142"	9	25	3	0	0	0	4	-1	0	1.395	-3.5066	5.6554	-1.8748	-10.8495	0.8597	4.0244	3.2948	2.4564	-4.8552	-6.3222	7.5112	-8.0196	-1.7264	2.98	0.2111	0.0606	2.3623	6.8859	-4.8077	4.1209	0.3137	0.5111	0.2332	0.4527	0.214	0.3299	0.2719	0.3262	0.3673	0.2461	0.3919	0.2723	0.2379	0.3576	0.4998	0.3595	0.4408	0.2393	0.2674	6.3323	1.6303	3.0296	9	142	0.332894415273329	0	1
"143"	9	19	3	1	2.145	1	4	1	1	1.256	4.5328	-1.1154	9.4952	-2.8593	7.0344	-9.1263	0.9708	2.3988	4.3962	2.7862	5.9199	7.1173	6.7217	-10.1201	3.5877	-1.07	1.5127	3.5426	3.8323	4.5263	0.333	0.333	0.333	0.333	0.333	0.333	0.333	0.333	0.333	0.333	0.333	0.333	0.333	0.333	0.333	0.333	0.333	0.333	0.333	6.327	1.547	2.8064	9	143	0.227932068046007	1	0
"144"	9	40	3	1	2.145	0	11	-1	0	3.468	-2.6593	7.8286	-2.2271	4.2828	1.1145	0.3131	1.0431	2.8072	11.0689	-0.1079	-1.1625	0.9525	-3.1046	-0.1442	-7.1001	4.4874	0.1054	8.0814	5.8644	13.3192	0.4799	0.314	0.2689	0.3117	0.3858	0.3163	0.2144	0.2737	0.5193	0.3406	0.237	0.2697	0.2068	0.3208	0.2648	0.4094	0.2712	0.4204	0.5048	6.3297	1.4347	4.9186	9	144	1.2435780589183	0	1
"145"	9	59	3	-1	-2.145	1	5	-1	1	1.388	-4.7859	-0.8544	0.546	5.8217	-2.4367	-11.5224	-7.0571	-5.6191	1.8598	2.0861	0.2759	-4.8532	2.9096	0.5579	-3.4524	3.5645	-4.0497	-9.2985	-10.1792	4.9522	0.333	0.333	0.333	0.333	0.333	0.333	0.333	0.333	0.333	0.333	0.333	0.333	0.333	0.333	0.333	0.333	0.333	0.333	0.333	6.327	1.4343	2.8225	9	145	0.327863862084613	0	1
"146"	9	35	3	4	8.58	1	3	1	1	0.913	4.6095	6.0694	19.135	4.0352	8.8946	9.2271	14.9046	10.1368	5.1216	5.4197	4.5469	3.7512	6.7619	14.3136	4.999	10.9222	6.3169	15.7094	0.5741	14.6097	0.333	0.333	0.333	0.333	0.333	0.333	0.333	0.333	0.333	0.333	0.333	0.333	0.333	0.333	0.333	0.333	0.333	0.333	0.333	6.327	1.5198	2.4472	9	146	-0.0910193983871685	1	0
"147"	9	58	3	-2	-4.29	1	3	-1	1	0.914	-2.4974	-5.3337	-4.9398	-5.0172	-2.4733	-1.5943	-4.9295	-6.7958	1.2297	-9.6908	1.9455	-6.514	1.6552	-0.8884	-0.6325	-15.113	-7.3773	2.4947	-6.3688	-14.0836	0.333	0.333	0.333	0.333	0.333	0.333	0.333	0.333	0.333	0.333	0.333	0.333	0.333	0.333	0.333	0.333	0.333	0.333	0.333	6.327	1.6466	2.5651	9	147	-0.089924707527987	0	1
"148"	9	16	3	-2	-4.29	1	5	-1	1	1.441	-0.5199	-6.2489	-1.6445	-0.5347	-16.3875	-5.3379	-12.2872	-1.7094	-0.4903	-2.4162	0.7475	-9.8291	-2.3782	-3.3341	1.3438	-8.6931	-6.6198	-6.448	5.1617	-6.5869	0.333	0.333	0.333	0.333	0.333	0.333	0.333	0.333	0.333	0.333	0.333	0.333	0.333	0.333	0.333	0.333	0.333	0.333	0.333	6.327	1.6123	3.0583	9	148	0.365337317017385	0	1
"149"	9	5	3	1	2.145	1	10	1	1	3.115	3.4712	3.7739	1.6132	-3.9931	6.7526	2.7831	3.419	2.7592	2.7417	4.6058	9.655	-3.1519	-1.543	8.5307	-8.1694	-0.658	-7.9273	4.7322	3.8479	7.824	0.333	0.333	0.333	0.333	0.333	0.333	0.333	0.333	0.333	0.333	0.333	0.333	0.333	0.333	0.333	0.333	0.333	0.333	0.333	6.327	1.7235	4.8496	9	149	1.13622915223942	1	0
"150"	9	43	3	-4	-8.58	1	3	-1	1	0.792	-6.964	-9.6879	-11.1242	-7.2054	0.7582	-6.4776	-7.6471	-11.9335	-9.5587	-5.5738	-2.963	-8.4479	-8.1474	-11.5864	-7.2428	-2.5963	-18.4373	-11.7388	-3.1274	-20.1154	0.333	0.333	0.333	0.333	0.333	0.333	0.333	0.333	0.333	0.333	0.333	0.333	0.333	0.333	0.333	0.333	0.333	0.333	0.333	6.327	1.477	2.276	9	150	-0.233193887167711	0	1
"151"	9	32	3	0	0	1	8	-1	0	2.412	1.5132	-0.0435	-4.6643	-1.5689	-2.2223	-11.8476	3.6457	3.7598	-3.2782	-1.5448	0.3946	0.0525	-0.0114	1.747	9.1464	0.8374	-3.9624	10.386	-6.3298	3.3523	0.333	0.333	0.333	0.333	0.333	0.333	0.333	0.333	0.333	0.333	0.333	0.333	0.333	0.333	0.333	0.333	0.333	0.333	0.333	6.327	1.7144	4.1293	9	151	0.880456278864939	0	1
"152"	9	48	3	2	4.29	1	6	1	1	1.67	3.3224	-2.1589	1.9781	3.6471	3.9687	5.0924	6.5027	-3.892	7.8318	0.6387	4.8141	3.7757	5.1466	4.2894	5.4319	7.4047	4.7457	-5.42	12.609	16.4307	0.333	0.333	0.333	0.333	0.333	0.333	0.333	0.333	0.333	0.333	0.333	0.333	0.333	0.333	0.333	0.333	0.333	0.333	0.333	6.327	1.5381	3.2204	9	152	0.512823626428664	1	0
"153"	9	26	3	1	2.145	0	7	1	1	2.181	-1.9102	0.9713	2.1657	8.1845	4.6677	0.312	2.3564	5.7753	-2.0841	6.3716	4.7689	4.2883	1.3121	4.3279	-6.1747	9.7213	2.7259	-10.9799	-1.0512	7.6405	0.3671	0.256	0.4394	0.2218	0.4202	0.2219	0.2961	0.2134	0.4599	0.3716	0.473	0.2134	0.4998	0.4174	0.204	0.2742	0.235	0.5207	0.2252	6.3303	1.633	3.8315	9	153	0.779783487219492	1	0
"154"	9	27	3	2	4.29	0	8	1	1	2.427	1.2097	-3.4478	6.8763	8.4847	1.1462	4.0192	6.3408	3.7213	10.3132	-5.292	1.8616	5.7527	6.4848	6.8132	1.7493	-1.9274	8.3386	4.3722	16.1654	2.3674	0.2407	0.2949	0.3397	0.382	0.2078	0.4231	0.3241	0.4361	0.2666	0.3046	0.4201	0.2689	0.3817	0.3506	0.4143	0.2762	0.2069	0.3509	0.4458	6.335	1.5008	3.9445	9	154	0.886655926744464	1	0
"155"	9	12	3	1	2.145	0	5	1	1	1.298	1.1312	1.5076	3.2585	7.4755	10.6946	9.9717	6.2021	0.8424	-4.3791	3.1765	-1.2637	-6.2091	7.9376	1.7031	-2.7453	8.3626	-1.176	-4.7101	-1.9385	2.1678	0.2964	0.3303	0.3997	0.2525	0.4103	0.481	0.2017	0.426	0.4588	0.3847	0.2267	0.3623	0.3225	0.207	0.3182	0.2744	0.3339	0.4256	0.2224	6.3343	1.5732	2.882	9	155	0.260824618281898	1	0
"156"	9	47	3	1	2.145	1	3	1	1	0.69	6.1565	-2.3261	5.8908	0.5481	6.9898	-2.774	-4.3293	12.5048	2.5889	-1.7309	11.2226	1.1942	4.3345	4.3604	4.8556	-5.8781	4.4328	-3.5716	-1.9838	0.5385	0.333	0.333	0.333	0.333	0.333	0.333	0.333	0.333	0.333	0.333	0.333	0.333	0.333	0.333	0.333	0.333	0.333	0.333	0.333	6.327	1.584	2.2909	9	156	-0.371063681390832	1	0
"157"	9	70	3	4	8.58	0	5	1	1	1.45	4.7861	10.1441	0.2185	7.1579	6.5993	3.901	12.6167	5.1522	6.261	5.962	11.1671	11.9566	17.5267	12.6267	7.7629	6.6152	0.6026	9.5274	19.0928	11.6045	0.4913	0.2219	0.3421	0.2205	0.3734	0.3357	0.3677	0.5119	0.2134	0.2939	0.2495	0.2964	0.4236	0.2482	0.3641	0.2721	0.3893	0.4221	0.2982	6.3354	1.4145	2.8673	9	157	0.371563556432483	1	0
"158"	9	4	3	0	0	1	5	1	1	1.53	4.2818	0.8061	4.3135	-3.7785	5.4604	12.6119	-5.3484	5.9717	-2.3469	2.4724	-3.6303	-5.0928	1.4064	4.164	-6.3673	0.4283	-4.9327	-2.4553	-4.8785	-2.8501	0.333	0.333	0.333	0.333	0.333	0.333	0.333	0.333	0.333	0.333	0.333	0.333	0.333	0.333	0.333	0.333	0.333	0.333	0.333	6.327	1.6656	3.1979	9	158	0.425267735404344	1	0
"159"	9	36	3	-4	-8.58	0	4	-1	1	1.063	-6.79	-11.3561	-8.9734	-0.7793	-12.0221	-5.2201	-2.4579	-12.6333	-6.0016	-10.6023	-10.6844	-12.8596	-3.9891	-13.9556	-12.9731	-5.8029	-15.7915	-1.5461	-0.6579	-16.338	0.2097	0.2475	0.3436	0.3081	0.2406	0.3167	0.4452	0.2364	0.4559	0.4205	0.3757	0.3048	0.2399	0.3175	0.3983	0.3549	0.386	0.4414	0.2864	6.3293	1.6011	2.6808	9	159	0.0610950993598108	0	1
"160"	9	56	3	4	8.58	0	4	1	1	1.007	12.2179	9.8714	8.4318	11.8828	12.985	12.1392	11.5981	15.8248	16.2343	2.8216	6.4444	-2.8878	9.6551	8.8109	4.2565	6.8945	10.0765	9.4807	1.509	2.0513	0.3337	0.2938	0.3217	0.254	0.3379	0.2386	0.299	0.5134	0.3375	0.427	0.338	0.5105	0.3876	0.2656	0.2388	0.3777	0.2322	0.3715	0.2431	6.3216	1.6952	2.7075	9	160	0.00697561373642514	1	0
"161"	9	31	3	-1	-2.145	1	8	1	0	2.617	2.3326	-14.0665	0.2859	-8.3	0.1571	-2.0661	2.1861	-0.3625	-1.8032	-11.0855	0.1586	6.0428	-2.6395	1.1898	-1.0574	-0.5754	-8.3655	-5.2134	-0.9235	2.7828	0.333	0.333	0.333	0.333	0.333	0.333	0.333	0.333	0.333	0.333	0.333	0.333	0.333	0.333	0.333	0.333	0.333	0.333	0.333	6.327	1.733	4.3513	9	161	0.962028623548009	1	0
"162"	9	41	3	2	4.29	0	4	1	1	0.946	8.946	7.8429	1.3932	11.2553	-1.9668	11.3313	8.5223	6.9948	-5.2135	8.5229	1.4994	3.7183	8.9583	-1.4688	-0.2302	-2.0509	1.2569	4.5392	8.2711	4.0013	0.2663	0.3169	0.2308	0.448	0.23	0.3492	0.3851	0.4116	0.5038	0.2837	0.5293	0.2592	0.3525	0.274	0.3229	0.284	0.3604	0.2335	0.295	6.336	1.5307	2.4796	9	162	-0.0555127099302588	1	0
"163"	9	29	3	-4	-8.58	1	5	-1	1	1.376	-9.2906	-5.3988	-3.5157	-8.2563	-13.5344	-5.9094	-1.8348	-0.7451	-9.0833	-2.5033	-14.3273	-13.3122	-14.9334	-18.5533	-4.7568	-14.9297	-9.7329	-6.2947	-9.8862	-4.8992	0.333	0.333	0.333	0.333	0.333	0.333	0.333	0.333	0.333	0.333	0.333	0.333	0.333	0.333	0.333	0.333	0.333	0.333	0.333	6.327	1.6533	3.0269	9	163	0.319180739511152	0	1
"164"	9	9	3	-2	-4.29	0	4	-1	1	0.948	-0.0255	-6.3237	2.3696	-2.0487	-10.951	1.3365	-8.5463	-0.0336	-15.0062	-2.5623	-4.2832	-2.6395	-3.7962	-9.6265	-3.1091	-10.0454	-1.3734	3.9607	-4.1483	-8.6273	0.353	0.3067	0.2708	0.3755	0.4299	0.3711	0.2365	0.425	0.2736	0.4148	0.2342	0.2832	0.4661	0.2512	0.4176	0.3921	0.216	0.2573	0.3605	6.3355	1.5023	2.4487	9	164	-0.0534007767271153	0	1
"165"	9	38	3	-1	-2.145	0	8	-1	1	2.273	-5.6213	6.7843	2.5779	-3.8236	-3.8721	2.1101	-1.1765	-4.5745	1.596	3.9029	-1.6103	-13.6578	2.3855	-1.6595	-4.2995	-5.4157	-1.6502	1.3599	-3.2143	-12.0673	0.2076	0.2896	0.4821	0.2025	0.4686	0.2236	0.3093	0.4026	0.3021	0.206	0.4108	0.2569	0.5316	0.2114	0.3776	0.3168	0.276	0.4402	0.4067	6.322	1.7221	3.9902	9	165	0.821100544870406	0	1
"166"	9	39	3	0	0	0	5	-1	0	1.547	-0.7187	4.9017	-3.7298	-7.3403	-0.3874	-5.6906	6.2753	-3.9787	-2.9291	6.6202	5.0938	-5.6467	-1.9567	-0.6426	5.0343	-2.9135	-6.7406	-0.298	3.835	9.8876	0.2572	0.4867	0.2723	0.3842	0.4205	0.2996	0.4135	0.2231	0.2672	0.2309	0.4918	0.3674	0.2779	0.2146	0.3946	0.4959	0.3937	0.2273	0.201	6.3194	1.5843	3.1483	9	166	0.436317571590929	0	1
"167"	9	20	3	2	4.29	1	3	1	1	0.917	8.221	7.8854	2.5871	5.2734	9.7304	1.2583	4.0367	-1.4029	1.1881	-1.2082	7.4268	0.0951	-10.3358	3.5814	5.4015	8.6128	7.2519	4.4465	9.509	10.2698	0.333	0.333	0.333	0.333	0.333	0.333	0.333	0.333	0.333	0.333	0.333	0.333	0.333	0.333	0.333	0.333	0.333	0.333	0.333	6.327	1.5929	2.5176	9	167	-0.0866478067256722	1	0
"168"	9	30	3	-2	-4.29	1	4	-1	1	1.216	-1.3586	-1.1475	-2.5595	-7.9092	-7.4955	-9.69	-7.2389	-1.391	-9.0329	-3.5071	-2.8278	-1.2278	-13.5499	-3.6998	-0.0714	0.1028	-11.7894	7.2137	-9.2444	-0.7847	0.333	0.333	0.333	0.333	0.333	0.333	0.333	0.333	0.333	0.333	0.333	0.333	0.333	0.333	0.333	0.333	0.333	0.333	0.333	6.327	1.4457	2.6833	9	168	0.195566783543975	0	1
"169"	9	65	3	-2	-4.29	0	3	-1	1	0.81	-1.3117	-0.8256	-13.9485	-2.6001	-9.3593	-5.9718	-5.1315	-4.9608	-5.5606	-5.8602	-1.2473	-6.2928	-7.9016	1.0554	-6.1873	-4.3145	-8.7109	-3.1591	-5.2932	11.3332	0.2979	0.3509	0.2171	0.296	0.3698	0.2984	0.4598	0.2022	0.3863	0.3608	0.2075	0.292	0.342	0.2747	0.4956	0.2605	0.4976	0.3233	0.3856	6.3181	1.6779	2.494	9	169	-0.210721031315653	0	1
"170"	9	66	3	-1	-2.145	0	5	1	0	1.562	-0.8179	8.3185	-5.0703	6.3467	-1.8388	-1.6614	-9.7735	-4.843	0.0737	-1.4651	-2.2346	-1.9216	-6.8349	-8.5828	-1.632	-8.3806	2.4592	-2.1792	4.348	-7.99	0.2706	0.4085	0.3322	0.2631	0.3844	0.3391	0.4814	0.2485	0.5058	0.322	0.3947	0.3561	0.257	0.2145	0.26	0.3219	0.3634	0.3154	0.2817	6.3201	1.4077	2.9793	9	170	0.445967051417494	1	0
"171"	9	1	3	-4	-8.58	1	2	-1	1	0.601	-5.4512	-5.3259	-1.1801	-12.7526	-10.1647	-14.1055	-6.1047	-13.5105	-12.5741	-12.1478	-8.2406	-8.5288	-18.1268	-10.0183	-9.3978	-6.4071	-3.7014	-12.8015	2.4171	-3.1458	0.333	0.333	0.333	0.333	0.333	0.333	0.333	0.333	0.333	0.333	0.333	0.333	0.333	0.333	0.333	0.333	0.333	0.333	0.333	6.327	1.6933	2.3015	9	171	-0.509160344446929	0	1
"172"	9	18	3	0	0	1	4	-1	0	1.076	-0.6629	7.2527	-4.5361	-9.3181	3.2779	0.4038	-1.912	5.7701	-3.3494	-3.5144	3.3374	2.9321	-0.0736	8.4439	0.8786	-1.1977	2.4082	1.1183	-11.3982	0.6413	0.333	0.333	0.333	0.333	0.333	0.333	0.333	0.333	0.333	0.333	0.333	0.333	0.333	0.333	0.333	0.333	0.333	0.333	0.333	6.327	1.6381	2.7272	9	172	0.0732504617395927	0	1
"173"	9	34	3	2	4.29	1	3	1	1	0.977	1.9699	9.4566	8.2169	-0.2383	6.306	-6.5172	2.892	9.4203	10.3757	3.3345	12.7279	1.0447	2.5554	6.6924	-5.4825	8.6716	-0.2731	3.5315	4.3174	5.5342	0.333	0.333	0.333	0.333	0.333	0.333	0.333	0.333	0.333	0.333	0.333	0.333	0.333	0.333	0.333	0.333	0.333	0.333	0.333	6.327	1.6401	2.6273	9	173	-0.0232686269393543	1	0
"174"	9	60	3	0	0	1	3	1	1	0.931	4.0704	3.7541	6.597	-0.745	8.0649	0.3009	-3.5764	2.8166	-1e-04	-8.9819	2.5837	3.7894	-1.9073	-1.8342	-4.575	-12.9871	-2.6901	1.7804	4.4495	-0.5809	0.333	0.333	0.333	0.333	0.333	0.333	0.333	0.333	0.333	0.333	0.333	0.333	0.333	0.333	0.333	0.333	0.333	0.333	0.333	6.327	1.5193	2.4646	9	174	-0.0714960017050699	1	0
"175"	9	22	3	-4	-8.58	0	2	-1	1	0.558	-12.8813	-12.0805	-7.8309	-13.3044	-12.2408	-6.9575	-5.4832	-14.0429	-9.8308	-12.2277	-8.751	-15.3234	-11.821	-9.3084	-0.6126	-6.1263	2.7302	0.706	-6.0146	-9.2309	0.2797	0.3941	0.2817	0.3446	0.3964	0.4272	0.2725	0.367	0.2344	0.4452	0.2058	0.2946	0.2658	0.4659	0.3781	0.3333	0.2232	0.4324	0.2895	6.3313	1.5786	2.142	9	175	-0.583396316600826	0	1
"176"	9	10	3	-1	-2.145	0	6	-1	1	1.764	-4.6114	-7.0937	1.1174	-7.1321	7.5897	-1.5441	5.7213	-3.5727	4.9366	-3.1977	-5.8721	-6.781	-5.8036	4.3955	1.8194	-6.057	-9.9687	-3.0429	-2.1183	-1.8225	0.4829	0.2211	0.3457	0.4842	0.2169	0.3289	0.2656	0.5207	0.407	0.2153	0.4208	0.3167	0.235	0.2014	0.3005	0.4388	0.2976	0.3478	0.2725	6.3194	1.5396	3.3151	9	176	0.5675839575846	0	1
"177"	9	51	3	-2	-4.29	0	4	-1	1	0.841	-2.8299	-4.9827	-1.0712	-0.5338	-15.4785	-4.5326	6.5175	-4.4575	-9.1968	-8.7608	-3.712	-5.6593	-7.2026	-6.5488	4.4609	-1.3935	-7.3418	-9.3909	-4.7703	-0.5666	0.2408	0.334	0.2389	0.415	0.2948	0.2457	0.2994	0.364	0.4359	0.3715	0.2778	0.4455	0.2308	0.4285	0.3995	0.2409	0.2696	0.5143	0.2767	6.3235	1.4411	2.2912	9	177	-0.173163619009189	0	1
"178"	9	61	3	1	2.145	1	10	1	1	3.07	-0.7948	7.3561	2.1979	0.9125	-8.6254	1.1598	8.893	-4.4045	9.8968	-1.9959	-1.5228	5.1282	2.7975	5.4492	-2.323	6.9411	0.0305	-2.9011	8.3253	6.6224	0.333	0.333	0.333	0.333	0.333	0.333	0.333	0.333	0.333	0.333	0.333	0.333	0.333	0.333	0.333	0.333	0.333	0.333	0.333	6.327	1.6938	4.7704	9	178	1.12167756159911	1	0
"179"	9	6	3	2	4.29	1	3	1	1	0.972	4.7309	7.3442	11.1312	4.3436	8.4123	3.2136	4.3945	-3.1242	3.2406	-2.6589	11.1711	-6.8257	7.7482	7.7595	3.6935	2.3211	0.9513	5.2491	0.7838	11.7111	0.333	0.333	0.333	0.333	0.333	0.333	0.333	0.333	0.333	0.333	0.333	0.333	0.333	0.333	0.333	0.333	0.333	0.333	0.333	6.327	1.4372	2.4062	9	179	-0.028399474521698	1	0
"180"	9	62	3	2	4.29	1	3	1	1	0.691	5.9215	-1.1312	12.4542	11.257	-0.8377	-0.3016	6.5374	5.774	-0.0195	-1.8377	12.145	-0.9495	-1.5104	3.4302	-0.1922	6.6331	12.8988	6.9501	3.5461	5.4876	0.333	0.333	0.333	0.333	0.333	0.333	0.333	0.333	0.333	0.333	0.333	0.333	0.333	0.333	0.333	0.333	0.333	0.333	0.333	6.327	1.6353	2.3253	9	180	-0.369615455214467	1	0
"181"	9	52	3	-1	-2.145	0	7	-1	1	2.506	1.0973	1.335	-7.5679	-9.332	-6.1088	-4.9334	5.3019	3.7916	-6.4788	-11.3826	7.8976	-2.5609	-2.5812	-0.9304	-3.0853	-6.1221	-0.5744	-1.7755	1.7974	-0.1163	0.222	0.3313	0.4825	0.2181	0.3625	0.4371	0.4748	0.2041	0.405	0.2259	0.4046	0.2197	0.3923	0.3086	0.493	0.3036	0.2369	0.3316	0.2686	6.3222	1.623	4.1236	9	181	0.918687856473877	0	1
"182"	9	42	3	4	8.58	0	3	1	1	1.076	12.7992	6.4289	12.2224	0.7237	-1.4339	6.5035	17.7796	11.9268	10.6784	3.1181	10.6138	4.8357	13.6931	4.7914	0.9905	10.2451	11.0713	10.5374	11.0479	12.277	0.4376	0.2586	0.3931	0.2554	0.2154	0.5005	0.4532	0.2262	0.4702	0.3263	0.4553	0.202	0.2612	0.4106	0.2199	0.4816	0.2035	0.2526	0.2961	6.3193	1.4741	2.5597	9	182	0.0732504617395927	1	0
"183"	9	28	3	4	8.58	0	4	1	1	1.366	11.3477	2.3631	6.7387	12.319	14.198	15.047	6.0288	-1.0495	3.898	7.6479	6.8563	9.0132	13.3579	4.1855	11.3611	14.2952	4.5789	1.663	9.4063	16.4812	0.2066	0.4939	0.3388	0.369	0.2388	0.2036	0.2522	0.2055	0.5174	0.3537	0.2868	0.2338	0.265	0.2313	0.4375	0.5196	0.2522	0.5102	0.4096	6.3254	1.5574	2.9338	9	183	0.311886761148598	1	0
"184"	9	57	3	-4	-8.58	1	4	-1	1	1.042	-7.9798	-9.5605	-11.7334	-17.76	-12.5999	-2.1571	-4.8915	-10.8112	-9.8191	-17.3989	-4.9619	-1.0945	1.5464	-10.0518	-11.1167	-7.9441	-6.3997	-7.2693	-13.3521	-6.5307	0.333	0.333	0.333	0.333	0.333	0.333	0.333	0.333	0.333	0.333	0.333	0.333	0.333	0.333	0.333	0.333	0.333	0.333	0.333	6.327	1.4082	2.4599	9	184	0.0411419433311752	0	1
"185"	9	33	3	1	2.145	1	8	1	1	2.561	4.8099	12.0625	-9.7138	0.4515	5.6979	5.6523	-0.0452	-1.1528	10.1523	0.8319	-5.2855	-3.2388	2.7283	6.0875	6.098	1.9363	-0.5693	0.5726	3.5539	1.2667	0.333	0.333	0.333	0.333	0.333	0.333	0.333	0.333	0.333	0.333	0.333	0.333	0.333	0.333	0.333	0.333	0.333	0.333	0.333	6.327	1.472	4.0448	9	185	0.940397807217388	1	0
"186"	9	45	3	-1	-2.145	1	6	-1	1	1.711	-3.1378	-3.798	-12.0977	-6.1646	-1.1213	0.6117	-1.5309	-0.0729	-0.2383	-6.0143	-1.3172	0.4298	-2.3337	2.4593	2.1493	2.1728	-2.428	5.1135	-16.2522	2.3164	0.333	0.333	0.333	0.333	0.333	0.333	0.333	0.333	0.333	0.333	0.333	0.333	0.333	0.333	0.333	0.333	0.333	0.333	0.333	6.327	1.5707	3.2953	9	186	0.537077994910056	0	1
"187"	9	63	3	4	8.58	1	5	1	1	1.639	5.7848	1.2909	5.6196	7.6257	5.0195	10.5418	11.1312	4.8537	13.3718	6.0485	19.1777	8.1134	18.4756	2.41	12.5249	7.3109	8.9587	9.5551	12.9669	0.8496	0.333	0.333	0.333	0.333	0.333	0.333	0.333	0.333	0.333	0.333	0.333	0.333	0.333	0.333	0.333	0.333	0.333	0.333	0.333	6.327	1.4917	3.1399	9	187	0.494086299761693	1	0
"188"	9	11	3	0	0	0	3	1	0	0.942	1.9514	6.1626	1.4726	-4.824	3.7055	-5.4739	-0.5433	-0.4846	1.7676	-4.3974	-2.8133	7.5089	-8.5067	9.424	1.4907	-6.1853	-5.7508	-0.2309	5.1871	1.6541	0.4203	0.2292	0.4488	0.2654	0.3914	0.3602	0.213	0.2474	0.3686	0.2397	0.472	0.2455	0.4391	0.2584	0.33	0.3719	0.2323	0.3624	0.4337	6.3294	1.7081	2.6591	9	188	-0.059750004405774	1	0
"189"	9	67	3	0	0	0	7	1	0	2.013	2.1862	-2.9864	1.6353	1.8063	-3.4274	-0.0747	1.4643	-2.8706	2.8095	6.7789	-7.2081	1.8278	7.7382	3.385	1.9633	4.9706	4.0786	-9.7204	-4.7049	-9.1635	0.2816	0.2086	0.2782	0.2284	0.3632	0.4029	0.4854	0.2828	0.4317	0.253	0.3165	0.513	0.2607	0.3321	0.3592	0.2135	0.5081	0.3293	0.2831	6.3313	1.5355	3.564	9	189	0.699626146657654	1	0
"190"	9	44	3	-2	-4.29	1	4	-1	1	1.074	-7.5283	-2.3661	-0.7743	-5.2213	-11.5098	-4.1725	2.6908	-0.607	8.8627	-5.691	-11.6741	-10.847	-6.1098	-0.1967	-4.9564	-8.8294	-4.2178	-2.022	-3.6799	-5.9964	0.333	0.333	0.333	0.333	0.333	0.333	0.333	0.333	0.333	0.333	0.333	0.333	0.333	0.333	0.333	0.333	0.333	0.333	0.333	6.327	1.628	2.7078	9	190	0.071389996086673	0	1
"191"	9	3	3	-1	-2.145	1	11	-1	1	3.546	-2.9122	-0.5319	-6.9032	6.0964	1.237	-1.4897	-0.4814	-0.5464	-4.1019	-3.218	-8.4064	3.7554	-4.8604	3.138	-5.5445	-0.0528	-12.1304	-8.0388	7.4131	-6.7346	0.333	0.333	0.333	0.333	0.333	0.333	0.333	0.333	0.333	0.333	0.333	0.333	0.333	0.333	0.333	0.333	0.333	0.333	0.333	6.327	1.4119	4.9639	9	191	1.26582020765202	0	1
"192"	9	15	3	-4	-8.58	1	4	-1	1	1.134	-3.8191	-9.1886	0.4303	-7.2725	-8.9828	-9.8352	-19.1898	-3.253	-5.5371	-7.3867	-5.5261	-8.8859	-5.3058	-5.5125	-10.1694	-5.9962	-9.7751	-10.1058	-19.9704	-14.7452	0.333	0.333	0.333	0.333	0.333	0.333	0.333	0.333	0.333	0.333	0.333	0.333	0.333	0.333	0.333	0.333	0.333	0.333	0.333	6.327	1.6588	2.8015	9	192	0.12575120530556	0	1
"193"	9	69	3	2	4.29	0	3	1	1	0.851	7.6611	9.344	-2.7131	5.9633	5.6993	13.7363	0.6788	11.1768	1.452	7.4796	0.8769	4.1236	1.3014	-3.5578	7.3664	7.9421	8.5297	4.5476	-3.3021	-0.5803	0.3226	0.2699	0.4595	0.2017	0.4646	0.2981	0.2603	0.2105	0.3273	0.4703	0.3531	0.3979	0.2488	0.516	0.2885	0.2388	0.3493	0.2644	0.392	6.3337	1.6861	2.5355	9	193	-0.161343150408763	1	0
"194"	9	49	3	4	8.58	1	3	1	1	0.691	8.5168	4.7134	6.0544	6.5065	10.3314	10.3165	3.5842	13.4775	7.294	-1.3694	10.3257	7.1718	10.5959	17.6229	8.8869	5.8304	19.8009	11.2724	1.9671	7.3555	0.333	0.333	0.333	0.333	0.333	0.333	0.333	0.333	0.333	0.333	0.333	0.333	0.333	0.333	0.333	0.333	0.333	0.333	0.333	6.327	1.6163	2.3088	9	194	-0.369615455214467	1	0
"195"	9	54	3	1	2.145	0	2	1	1	0.708	3.3627	4.8567	0.044	1.9126	-1.4845	2.385	-2.6585	10.4092	5.1131	5.2924	7.2982	-2.1568	7.205	-3.6213	8.6459	-10.9135	2.2435	3.5614	-1.1454	1.7195	0.4758	0.4137	0.3101	0.2635	0.2046	0.3127	0.4118	0.2644	0.3407	0.4612	0.3739	0.3047	0.5151	0.2632	0.4047	0.2292	0.2975	0.214	0.2567	6.3177	1.4116	2.1252	9	195	-0.345311185288417	1	0
"196"	9	17	3	-1	-2.145	1	4	-1	1	1.177	-2.8214	2.5429	3.4132	4.5336	-9.465	-3.0054	-2.5477	-1.9391	-6.6585	0.8712	1.5497	-15.1793	3.1595	-3.6376	-5.5655	-4.5439	-6.3781	-0.1741	0.3883	4.1737	0.333	0.333	0.333	0.333	0.333	0.333	0.333	0.333	0.333	0.333	0.333	0.333	0.333	0.333	0.333	0.333	0.333	0.333	0.333	6.327	1.714	2.9107	9	196	0.16296882827814	0	1
"197"	9	21	3	4	8.58	1	4	1	1	1.272	6.5295	4.4632	22.0832	7.2553	3.372	5.6106	12.8351	4.5827	4.2846	17.9314	7.8408	12.657	7.1747	7.1477	11.1208	1.0692	12.089	6.0914	8.8777	9.2412	0.333	0.333	0.333	0.333	0.333	0.333	0.333	0.333	0.333	0.333	0.333	0.333	0.333	0.333	0.333	0.333	0.333	0.333	0.333	6.327	1.5195	2.8061	9	197	0.24059046491793	1	0
"198"	9	13	3	2	4.29	0	3	1	1	0.816	4.3896	10.0961	5.7019	4.7642	11.2803	5.1965	-2.8252	1.4948	7.2266	6.5241	9.6652	-5.7214	6.7546	-6.0303	3.8664	0.3308	5.1258	8.27	1.1674	8.6903	0.4087	0.3216	0.2612	0.2014	0.3107	0.2183	0.5187	0.3707	0.4936	0.212	0.3557	0.3012	0.396	0.2199	0.4961	0.2382	0.477	0.2446	0.2732	6.3189	1.5649	2.3998	9	198	-0.20334092401803	1	0
"199"	9	23	3	-2	-4.29	0	5	-1	1	1.417	0.3996	-5.8433	-7.729	-0.1938	-5.3563	-6.3928	-2.0098	-0.4584	2.3143	-2.7084	0.7079	-4.1971	-10.4365	-11.1066	-10.8211	2.7063	-16.1731	-0.3349	-5.7794	-2.2363	0.5087	0.3654	0.2835	0.2182	0.4058	0.2536	0.4748	0.2534	0.2227	0.4078	0.2081	0.4254	0.3915	0.4474	0.2516	0.3018	0.2197	0.2833	0.414	6.3366	1.6247	3.0513	9	199	0.348541960708543	0	1
"200"	9	24	3	-1	-2.145	0	15	1	0	4.652	-0.6257	-3.9117	2.4842	-5.2333	-7.3312	8.2066	3.0216	-5.8533	-9.874	-5.4218	0.0133	6.0043	3.6124	-6.0147	-6.1954	-8.6425	-2.319	1.8229	-3.113	-3.5034	0.2105	0.3491	0.2717	0.4189	0.2858	0.2517	0.4228	0.5223	0.288	0.238	0.5265	0.3746	0.2603	0.2245	0.2853	0.5141	0.2967	0.26	0.3185	6.3193	1.5818	6.2527	9	200	1.53729723465642	1	0
"201"	9	2	3	-2	-4.29	1	5	-1	1	1.371	-7.2338	0.5494	-6.7559	-7.174	3.3312	-5.6545	-7.7757	-8.9493	-7.1613	-4.1963	-0.2132	-0.3959	-7.7293	-15.19	-10.6929	4.204	-3.5994	-1.6707	-2.1804	1.6088	0.333	0.333	0.333	0.333	0.333	0.333	0.333	0.333	0.333	0.333	0.333	0.333	0.333	0.333	0.333	0.333	0.333	0.333	0.333	6.327	1.639	3.0217	9	201	0.315540400580177	0	1
"202"	9	46	3	0	0	1	4	-1	1	1.2	-4.675	-10.4468	4.6575	2.7082	5.5654	5.2557	4.0236	1.0452	3.1255	-3.0283	-1.3029	3.8135	-3.6132	-1.8503	1.2743	-6.3552	-5.2928	3.3083	-5.2354	8.1148	0.333	0.333	0.333	0.333	0.333	0.333	0.333	0.333	0.333	0.333	0.333	0.333	0.333	0.333	0.333	0.333	0.333	0.333	0.333	6.327	1.7143	2.9176	9	202	0.182321556793955	0	1
"203"	9	7	3	4	8.58	1	3	1	1	0.956	8.3038	7.2265	9.67	8.1583	19.5838	10.7025	15.5964	16.8933	4.1009	-0.1986	11.6554	5.8661	6.2195	2.7768	3.6827	11.3999	3.3423	6.9011	7.5787	10.8044	0.333	0.333	0.333	0.333	0.333	0.333	0.333	0.333	0.333	0.333	0.333	0.333	0.333	0.333	0.333	0.333	0.333	0.333	0.333	6.327	1.4175	2.3895	9	203	-0.0449973659307358	1	0
"204"	9	64	3	-4	-8.58	0	2	-1	1	0.568	-7.6917	-10.1902	-13.8671	-15.0538	-13.8705	-2.5902	-5.859	-20.8212	-4.162	-6.2842	-4.4038	-9.7208	-2.6945	-9.3335	-4.3186	-13.0923	-4.3277	-5.5445	-11.9994	-5.8669	0.2465	0.4278	0.2064	0.4862	0.4059	0.258	0.2092	0.3601	0.2474	0.463	0.3234	0.2965	0.2342	0.3503	0.2767	0.3394	0.3848	0.5303	0.2799	6.326	1.4654	2.0352	9	204	-0.565633860260986	0	1
"205"	9	14	3	4	8.58	0	6	1	1	1.42	9.4545	2.143	6.5944	9.7017	8.737	14.9038	7.6421	11.2219	12.9209	12.2908	11.1818	3.2808	-4.4246	5.9052	3.9422	7.3602	7.315	14.4621	16.3082	9.6644	0.2549	0.2186	0.3013	0.4233	0.2121	0.2787	0.314	0.2746	0.412	0.3035	0.2588	0.4355	0.3102	0.2215	0.347	0.5139	0.2522	0.4651	0.5227	6.3199	1.4023	2.8205	9	205	0.350656871613169	1	0
"206"	9	50	3	-4	-8.58	0	3	-1	1	0.654	-9.6721	-10.4862	-6.6373	-8.3974	1.96	-9.7339	-9.1011	-11.9348	-16.7657	-8.1318	-0.6326	-12.9519	-2.7838	-4.1049	-4.5723	-13.6044	-6.7036	-16.4291	-7.3905	-14.7668	0.3016	0.3386	0.4445	0.2725	0.496	0.3884	0.4521	0.3451	0.4601	0.4089	0.2362	0.2052	0.2708	0.4959	0.2223	0.2794	0.2298	0.2696	0.2174	6.3343	1.6149	2.2718	9	206	-0.424647927524938	0	1
"207"	9	37	3	-2	-4.29	0	5	-1	1	1.765	-0.7897	0.7572	-1.097	-5.777	-11.3079	-7.6875	4.2201	-1.4927	-4.9384	-12.4769	-0.7737	-5.5207	1.4678	-5.8771	-7.7268	-3.8077	1.4343	-14.7698	-3.9281	-4.4188	0.4511	0.312	0.2586	0.3463	0.4188	0.2519	0.2857	0.5255	0.3245	0.2083	0.4883	0.3205	0.2004	0.3146	0.4243	0.2745	0.4449	0.2732	0.2097	6.3331	1.7157	3.4828	9	207	0.56815069038526	0	1
"208"	9	68	3	1	2.145	0	4	1	1	1.13	5.7872	7.0158	2.9782	1.5303	7.3018	-2.1768	7.8224	-4.3037	8.8217	7.5955	7.999	3.4837	-7.5797	-3.44	3.0361	-1.3856	-0.5802	3.7245	-4.8157	-0.451	0.345	0.4037	0.2977	0.4833	0.2677	0.3346	0.2905	0.4804	0.2043	0.4454	0.388	0.207	0.3649	0.2334	0.3464	0.2209	0.4534	0.2924	0.2665	6.3255	1.4377	2.5641	9	208	0.122217632724249	1	0
"209"	9	55	3	2	4.29	0	5	1	1	1.347	5.3705	-0.0221	-1.7342	6.0248	11.2685	9.0945	-7.7793	12.9934	6.3911	1.8294	5.3114	11.0821	4.5622	4.9192	1.842	-0.0225	0.6141	2.8105	8.6459	2.1302	0.2151	0.2826	0.2226	0.3396	0.5009	0.4644	0.2467	0.3836	0.2221	0.2962	0.2101	0.492	0.2353	0.3776	0.3352	0.4686	0.3125	0.3946	0.3336	6.3333	1.5678	2.9144	9	209	0.297879897428227	1	0
"210"	9	53	3	0	0	0	6	1	1	1.863	2.9267	-2.7333	-2.8626	1.0464	-2.2305	5.2561	2.5551	-2.6485	3.1434	3.5059	1.9812	1.7197	-4.9164	4.6325	-2.1824	1.2489	1.4477	-2.7405	7.503	-15.5591	0.5071	0.4426	0.3397	0.2081	0.2395	0.3061	0.3837	0.2208	0.2933	0.2372	0.3562	0.4276	0.4902	0.3938	0.2124	0.2981	0.3641	0.2273	0.3699	6.3176	1.5831	3.4469	9	210	0.622188091619451	1	0
"211"	9	10	4	-1	-2.145	0	8	-1	1	2.565	-0.9595	-0.2148	-5.6535	-0.232	-2.9448	-1.3181	-8.4912	-8.7831	2.7662	-6.1973	1.186	6.5958	0.371	0.2475	3.4937	-14.5148	-2.1099	0.4114	-0.3076	-6.341	0.4058	0.2352	0.3009	0.2416	0.3176	0.244	0.4025	0.4989	0.2247	0.2968	0.3755	0.4564	0.3234	0.212	0.4097	0.271	0.2302	0.3864	0.4963	6.329	1.5401	4.1156	9	211	0.941958478622733	0	1
"212"	9	34	4	2	4.29	1	5	1	1	1.499	-0.1174	7.8699	10.3072	2.3669	6.1331	7.6805	0.2253	0.5176	12.0428	3.6101	1.1236	-7.3	3.8221	7.9436	7.5099	0.8276	7.2032	-2.2126	5.7407	12.1437	0.333	0.333	0.333	0.333	0.333	0.333	0.333	0.333	0.333	0.333	0.333	0.333	0.333	0.333	0.333	0.333	0.333	0.333	0.333	6.327	1.5088	3.0159	9	212	0.404798219120461	1	0
"213"	9	60	4	0	0	1	3	-1	1	0.698	-1.9994	-2.4133	2.0678	0.6366	-4.3953	1.2996	-0.1188	0.9379	-6.8656	0.8258	2.2867	-10.2572	6.9062	-4.7861	0.527	-1.4223	8.4902	1.9708	-5.9913	10.5299	0.333	0.333	0.333	0.333	0.333	0.333	0.333	0.333	0.333	0.333	0.333	0.333	0.333	0.333	0.333	0.333	0.333	0.333	0.333	6.327	1.4063	2.1157	9	213	-0.359536176219765	0	1
"214"	9	5	4	1	2.145	1	13	1	1	4.328	-1.0889	9.3385	1.1439	6.025	0.9349	4.8931	-2.2979	-4.3417	-2.259	11.176	-3.4778	0.6715	2.0933	-0.627	11.2657	9.0896	-1.6514	-0.1082	-1.5426	4.0173	0.333	0.333	0.333	0.333	0.333	0.333	0.333	0.333	0.333	0.333	0.333	0.333	0.333	0.333	0.333	0.333	0.333	0.333	0.333	6.327	1.6117	5.9454	9	214	1.46510554154418	1	0
"215"	9	4	4	0	0	1	3	1	0	0.723	0.6112	2.1336	2.6125	-8.138	7.8897	-9.0677	5.8419	-2.0763	0.0439	-1.33	-6.0828	-4.7181	2.9802	-2.2722	-0.3732	9.9764	-1.2795	-2.081	4.0881	0.9581	0.333	0.333	0.333	0.333	0.333	0.333	0.333	0.333	0.333	0.333	0.333	0.333	0.333	0.333	0.333	0.333	0.333	0.333	0.333	6.327	1.6702	2.4074	9	215	-0.324346056823372	1	0
"216"	9	13	4	2	4.29	0	3	1	1	0.762	4.3383	6.0643	8.724	12.754	-5.7566	6.262	2.156	6.5568	8.4333	7.9337	-2.6441	2.2967	7.0838	8.4176	11.2796	0.9495	-0.087	6.1773	-1.7232	-2.8445	0.2265	0.2895	0.3513	0.2484	0.309	0.233	0.3688	0.2994	0.4871	0.3153	0.3901	0.2223	0.2677	0.4262	0.3468	0.428	0.3741	0.5105	0.2323	6.3262	1.6317	2.3961	9	216	-0.271808723295491	1	0
"217"	9	38	4	-1	-2.145	0	4	1	0	1.123	0.5821	-3.3812	1.5008	-0.7746	-1.7904	0.0362	0.7839	-8.8281	-4.6312	-3.5162	-4.5865	-1.3364	-10.2402	-2.2292	8.3709	-9.2605	-8.4723	0.157	7.5744	-4.474	0.2326	0.4824	0.3314	0.4667	0.3941	0.3229	0.2149	0.3496	0.2837	0.3452	0.2071	0.2821	0.3091	0.3472	0.3939	0.5011	0.2744	0.335	0.2599	6.3335	1.5722	2.7069	9	217	0.116003675756306	1	0
"218"	9	37	4	-2	-4.29	0	7	-1	1	2.295	-5.1121	-1.0955	-2.0395	-1.2616	-3.0541	-5.2939	-0.0979	-18.9214	3.7464	-3.4762	-4.0451	-2.8662	-5.0538	-6.6276	-9.1877	-7.5102	-8.6536	2.4603	-8.1776	0.1926	0.2431	0.3706	0.4039	0.3256	0.3789	0.2243	0.4786	0.4223	0.2404	0.3892	0.217	0.2657	0.4271	0.2576	0.205	0.4528	0.3902	0.233	0.3996	6.3249	1.629	3.9294	9	218	0.830732843512508	0	1
"219"	9	23	4	-2	-4.29	0	4	-1	1	1.129	-3.279	2.4449	-1.7513	-5.4897	7.2553	-8.787	-2.8813	-6.684	-4.8445	-3.1032	-2.6368	-9.5075	-6.269	6.2143	-5.8611	-7.6501	-4.6287	-5.043	-10.8342	-11.3923	0.4111	0.2883	0.3873	0.3547	0.4272	0.3291	0.2865	0.2561	0.4242	0.3852	0.2276	0.3576	0.2864	0.3618	0.4289	0.2333	0.3199	0.238	0.3186	6.3219	1.624	2.7631	9	219	0.121332285167525	0	1
"220"	9	36	4	-4	-8.58	0	3	-1	1	0.827	-3.7523	-14.2213	-14.7792	-10.9643	-7.2019	-5.482	1.5076	-8.2803	-7.3844	-9.0486	-4.1642	-16.7624	-10.2162	-17.773	-5.9146	-12.8476	-4.039	-4.8738	-3.4746	-10.7238	0.5035	0.269	0.2436	0.45	0.2653	0.3989	0.2528	0.3009	0.2073	0.455	0.2601	0.4011	0.2873	0.2387	0.4786	0.35	0.3157	0.4083	0.2439	6.33	1.5403	2.3779	9	220	-0.189950583958446	0	1
"221"	9	48	4	2	4.29	1	7	1	1	2.142	0.0671	-2.8658	8.6479	11.9712	3.5537	-0.6315	4.3974	9.3216	1.992	-1.7393	4.77	-3.1273	-2.5858	1.6013	12.072	9.4925	5.8345	8.1121	8.5019	4.8577	0.333	0.333	0.333	0.333	0.333	0.333	0.333	0.333	0.333	0.333	0.333	0.333	0.333	0.333	0.333	0.333	0.333	0.333	0.333	6.327	1.6919	3.843	9	221	0.761739972025557	1	0
"222"	9	51	4	-2	-4.29	0	10	-1	1	3.546	-7.7168	-2.7014	-15.9921	-0.7903	7.1638	-8.9333	-7.2817	-11.0837	-2.7151	-5.932	-4.4038	-5.4011	-1.5411	0.6248	-6.0805	1.7596	-5.0827	-0.9249	-1.6368	-8.3999	0.2472	0.2195	0.3721	0.4687	0.3406	0.5167	0.4628	0.376	0.2005	0.4429	0.2267	0.4496	0.2538	0.4466	0.2173	0.4471	0.2039	0.2355	0.2049	6.3322	1.6448	5.214	9	222	1.26582020765202	0	1
"223"	9	28	4	4	8.58	0	4	1	1	1.033	3.9302	18.2113	8.2655	3.3307	7.496	5.7989	4.7448	14.8836	7.8512	2.995	7.9545	11.1565	4.4226	11.7906	8.3553	13.3072	4.6669	3.3884	9.4655	20.3032	0.2462	0.2095	0.3147	0.3483	0.252	0.2174	0.4838	0.4248	0.2084	0.3038	0.5036	0.3202	0.3461	0.273	0.5298	0.2842	0.3332	0.4295	0.3025	6.3309	1.5713	2.6167	9	223	0.0324671901375014	1	0
"224"	9	58	4	-2	-4.29	1	5	-1	1	1.336	-2.0529	-9.9838	-0.4835	-11.6165	-6.4675	-1.7135	-5.1465	-0.319	6.4296	-6.0558	-6.9826	-5.1545	0.9235	-15.4519	-5.9502	-4.8743	0.4304	-3.3759	-8.5107	1.9379	0.333	0.333	0.333	0.333	0.333	0.333	0.333	0.333	0.333	0.333	0.333	0.333	0.333	0.333	0.333	0.333	0.333	0.333	0.333	6.327	1.4922	2.8368	9	224	0.289680075114454	0	1
"225"	9	45	4	-1	-2.145	1	8	-1	1	2.566	2.0684	2.8644	-7.8785	0.9607	6.0388	2.238	-4.6405	-6.7482	3.7071	-2.3372	-2.7691	-9.5007	0.8427	-0.8548	-0.363	-5.3687	-8.8261	-12.0274	1.749	-3.7507	0.333	0.333	0.333	0.333	0.333	0.333	0.333	0.333	0.333	0.333	0.333	0.333	0.333	0.333	0.333	0.333	0.333	0.333	0.333	6.327	1.7123	4.2832	9	225	0.942348266193445	0	1
"226"	9	7	4	4	8.58	1	3	1	1	0.866	8.9402	11.3624	-0.9758	14.0076	10.6564	10.981	6.4516	4.56	17.0812	10.9365	6.6956	3.7496	18.6041	11.576	10.4135	9.4448	10.2422	2.8203	3.8196	2.1337	0.333	0.333	0.333	0.333	0.333	0.333	0.333	0.333	0.333	0.333	0.333	0.333	0.333	0.333	0.333	0.333	0.333	0.333	0.333	6.327	1.5453	2.4169	9	226	-0.143870370419702	1	0
"227"	9	8	4	-4	-8.58	0	2	-1	1	0.644	-12.6041	-6.9912	-12.0602	-19.5857	-1.688	-3.885	-5.1825	-8.0648	-10.2487	-2.4307	-3.6517	-12.7915	-6.6998	-12.3734	-9.4762	-11.8666	-8.8922	1.1882	-10.9129	-14.1651	0.4927	0.2617	0.3465	0.4844	0.3231	0.2393	0.2842	0.2008	0.4098	0.2815	0.4963	0.2459	0.3149	0.4229	0.2977	0.3801	0.2304	0.4036	0.2096	6.3254	1.4728	2.1278	9	227	-0.440056552877783	0	1
"228"	9	63	4	4	8.58	1	2	1	1	0.625	10.4416	10.0885	4.8325	6.7595	9.1966	14.3096	5.5427	6.6116	3.3088	13.6548	-5.6349	4.5929	13.4788	9.6683	11.7935	9.0828	18.0967	10.1327	5.9077	7.9488	0.333	0.333	0.333	0.333	0.333	0.333	0.333	0.333	0.333	0.333	0.333	0.333	0.333	0.333	0.333	0.333	0.333	0.333	0.333	6.327	1.5739	2.2088	9	228	-0.470003629245736	1	0
"229"	9	2	4	-2	-4.29	1	3	-1	1	0.671	-3.6233	-5.9968	-8.6058	-5.1909	-7.4552	-9.1623	1.1563	-4.6362	-1.8001	-7.0205	-11.6709	8.6529	5.8443	-7.0784	-2.1123	-1.7552	-5.8094	-6.868	-4.4461	-7.9278	0.333	0.333	0.333	0.333	0.333	0.333	0.333	0.333	0.333	0.333	0.333	0.333	0.333	0.333	0.333	0.333	0.333	0.333	0.333	6.327	1.4529	2.1388	9	229	-0.398986142010455	0	1
"230"	9	57	4	-4	-8.58	1	2	-1	1	0.513	-12.9012	-12.4624	-0.8142	-6.777	-3.8901	-10.5068	-10.2135	-13.3225	-13.8809	-8.9731	-13.1612	-1.5908	-17.1458	-7.8129	-6.781	0.543	-6.4304	-2.6219	-7.1352	-14.0212	0.333	0.333	0.333	0.333	0.333	0.333	0.333	0.333	0.333	0.333	0.333	0.333	0.333	0.333	0.333	0.333	0.333	0.333	0.333	6.327	1.5822	2.0969	9	230	-0.667479433811368	0	1
"231"	9	16	4	-2	-4.29	1	4	-1	1	1.019	-2.9976	-6.5475	-2.229	-0.8204	-9.3	-7.3219	-7.3858	-3.9999	-4.5291	-2.6604	-4.3418	-9.9551	-12.3597	9.8404	-0.8165	-6.7744	-1.6084	-3.0941	1.9571	-10.9488	0.333	0.333	0.333	0.333	0.333	0.333	0.333	0.333	0.333	0.333	0.333	0.333	0.333	0.333	0.333	0.333	0.333	0.333	0.333	6.327	1.5298	2.5533	9	231	0.0188217542405877	0	1
"232"	9	70	4	4	8.58	0	2	1	1	0.509	8.5095	16.9249	6.4477	9.7908	8.3795	1.5102	7.635	7.3281	15.7451	0.214	7.6581	13.3901	4.8194	8.932	6.9969	5.7431	3.7843	5.995	20.1577	10.0512	0.2142	0.409	0.2506	0.4578	0.3072	0.4243	0.4755	0.2239	0.3993	0.2212	0.261	0.3152	0.2378	0.3529	0.439	0.4664	0.2524	0.3595	0.2668	6.334	1.4245	1.9428	9	232	-0.675307262431614	1	0
"233"	9	44	4	-2	-4.29	1	2	-1	1	0.631	-2.9362	-8.4802	7.0862	-5.4556	-14.8826	-4.4891	-7.6714	-5.905	-4.0374	-4.8358	-0.7408	-1.3685	-10.8687	-2.7326	-4.4474	-1.0504	-5.3214	-6.35	5.7857	-6.7789	0.333	0.333	0.333	0.333	0.333	0.333	0.333	0.333	0.333	0.333	0.333	0.333	0.333	0.333	0.333	0.333	0.333	0.333	0.333	6.327	1.4077	2.048	9	233	-0.460449416440924	0	1
"234"	9	42	4	4	8.58	0	3	1	1	0.627	4.481	8.1791	3.8698	13.8603	11.3112	13.283	10.957	7.4505	7.4964	1.3011	10.1653	10.0933	15.7773	11.4415	1.963	11.5695	8.8489	18.0456	1.6083	0.141	0.251	0.3395	0.2576	0.5221	0.4146	0.233	0.2938	0.3467	0.2164	0.476	0.2791	0.2088	0.3896	0.5029	0.2243	0.2988	0.4233	0.3896	0.2513	6.3185	1.5446	2.1774	9	234	-0.466808738349216	1	0
"235"	9	1	4	-4	-8.58	1	2	-1	1	0.507	-6.4765	-14.3768	-2.3804	-3.5407	-10.9269	-11.3797	-19.7173	-12.0478	-9.0568	-4.8916	-3.9556	-11.0705	-13.0059	-12.8143	-5.9029	-8.5153	-7.4905	-7.6452	-8.4123	2.6079	0.333	0.333	0.333	0.333	0.333	0.333	0.333	0.333	0.333	0.333	0.333	0.333	0.333	0.333	0.333	0.333	0.333	0.333	0.333	6.327	1.6727	2.1744	9	235	-0.679244275390954	0	1
"236"	9	40	4	1	2.145	0	4	1	1	1.224	-1.4186	-0.7248	5.5199	1.1027	7.6486	-0.2266	1.0507	6.1657	0.4674	-0.7165	10.1449	-7.2914	-0.4413	7.0799	-7.9311	7.2348	7.3046	-0.4742	6.9862	-0.5412	0.4098	0.293	0.3273	0.3022	0.4076	0.2988	0.368	0.322	0.4141	0.2062	0.3776	0.2346	0.3932	0.4473	0.3117	0.395	0.2224	0.2656	0.3387	6.3353	1.6114	2.841	9	236	0.202124184090134	1	0
"237"	9	25	4	0	0	0	20	1	1	8.297	-1.1354	4.1305	-11.2748	-1.4967	2.5724	6.7592	5.3417	2.6947	-7.3543	2.9765	4.1799	3.4503	1.1021	-0.7271	-7.2393	-6.2054	-1.9251	-2.2811	5.4374	2.9257	0.2602	0.2996	0.2164	0.473	0.4206	0.2152	0.4736	0.2744	0.2369	0.4211	0.2641	0.4625	0.1998	0.294	0.3601	0.4493	0.3625	0.2531	0.3937	6.3301	1.6111	9.9139	9	237	2.11589400368215	1	0
"238"	9	67	4	0	0	0	4	1	1	1.006	4.4104	5.2988	0.1717	7.363	-4.9629	5.6172	5.4912	-1.7068	-5.1752	4.7043	-3.0016	-8.6465	-1.8068	-4.5291	3.1463	-6.4722	7.4136	-4.532	-3.224	-1.3986	0.232	0.2628	0.5108	0.2193	0.382	0.223	0.3228	0.4358	0.2399	0.2881	0.3643	0.5141	0.3551	0.4836	0.2466	0.4939	0.2344	0.3112	0.2107	6.3306	1.6711	2.6899	9	238	0.00598207167754747	1	0
"239"	9	54	4	1	2.145	0	4	-1	0	1.132	-2.3063	3.4501	1.6407	9.3397	-2.4073	11.4649	4.3865	2.7044	-1.3418	5.1739	-5.6004	1.0319	-5.0288	-0.3584	0.8922	7.8023	-4.2557	10.8449	4.0003	-0.3061	0.234	0.4026	0.3709	0.2583	0.432	0.236	0.2066	0.46	0.3483	0.2419	0.4168	0.526	0.2708	0.3295	0.2559	0.2844	0.4337	0.3897	0.2381	6.3355	1.4264	2.5662	9	239	0.123985979780991	0	1
"240"	9	52	4	-1	-2.145	0	3	-1	1	0.908	1.2704	-1.5085	-4.7037	-4.358	-13.1271	-10.1865	-0.0765	-7.0198	2.3575	-1.9424	-0.6778	7.4433	1.7051	-7.5489	-5.9174	-1.7652	3.3108	3.5789	0.8165	-4.9953	0.2787	0.3174	0.5132	0.2618	0.3814	0.349	0.2976	0.2135	0.2579	0.3685	0.2174	0.2941	0.4669	0.4243	0.3555	0.2752	0.2091	0.4759	0.3644	6.3219	1.5811	2.5083	9	240	-0.0965109003808437	0	1
"241"	9	65	4	-2	-4.29	0	3	-1	1	0.684	-8.5424	-11.9069	-5.9083	7.0059	1.6044	-3.534	-9.3183	-9.0432	0.8736	3.7862	-7.5767	-4.2949	-6.1284	-2.8979	-11.6379	-4.9985	-3.8821	-2.6932	-4.5379	-2.6984	0.4104	0.2155	0.2477	0.398	0.2511	0.3308	0.3594	0.441	0.2156	0.4249	0.2586	0.2891	0.4234	0.3546	0.4097	0.2349	0.4266	0.2666	0.376	6.334	1.6876	2.3853	9	241	-0.379797361359587	0	1
"242"	9	49	4	4	8.58	1	3	1	1	0.727	4.6691	14.3917	18.9268	8.8589	9.0573	0.9763	5.7348	7.6581	13.8691	0.9442	9.826	15.4822	4.4342	9.2128	10.9919	10.041	1.3444	11.8716	10.1334	3.9759	0.333	0.333	0.333	0.333	0.333	0.333	0.333	0.333	0.333	0.333	0.333	0.333	0.333	0.333	0.333	0.333	0.333	0.333	0.333	6.327	1.5012	2.2444	9	242	-0.318828801448618	1	0
"243"	9	20	4	2	4.29	1	2	1	1	0.51	8.2197	8.3445	4.1237	3.4811	-1.497	4.4624	9.9356	-4.4736	1.5079	3.0321	-0.2423	5.131	0.0648	-0.4765	8.263	10.8646	8.3959	-3.2057	13.4457	7.9128	0.333	0.333	0.333	0.333	0.333	0.333	0.333	0.333	0.333	0.333	0.333	0.333	0.333	0.333	0.333	0.333	0.333	0.333	0.333	6.327	1.5764	2.0938	9	243	-0.673344553263766	1	0
"244"	9	24	4	-1	-2.145	0	10	-1	1	3.183	-0.6654	-6.075	-7.3515	-3.6308	1.7615	-1.8884	-2.4618	-12.6787	-7.661	-3.0742	-1.6828	0.666	0.6459	9.7927	2.554	5.4681	-5.0974	-1.558	-5.1458	-3.3916	0.2596	0.2074	0.241	0.3197	0.3554	0.2706	0.4899	0.2427	0.4924	0.3909	0.2036	0.3725	0.4378	0.3652	0.4306	0.2167	0.436	0.2006	0.3855	6.3182	1.5804	4.7671	9	244	1.15782414829996	0	1
"245"	9	64	4	-4	-8.58	0	2	-1	1	0.65	-6.0281	-13.4799	-11.4197	-18.152	-3.0949	-1.8307	-5.7051	-9.0239	-3.9117	2.6722	-8.2566	-5.8844	-9.7763	-6.6754	-7.8839	-12.9942	-12.0097	-12.0193	-13.5979	-14.0201	0.3948	0.4439	0.2772	0.2146	0.5123	0.4851	0.2157	0.3648	0.2168	0.313	0.3965	0.3419	0.3043	0.2035	0.3004	0.4682	0.2987	0.3408	0.2353	6.3278	1.4259	2.0834	9	245	-0.430782916092454	0	1
"246"	9	17	4	-1	-2.145	1	4	-1	1	1.175	-5.2143	3.9134	-0.5246	-4.6738	4.7973	3.1979	-5.5641	-9.2877	1.0556	-4.3471	-2.3982	-8.779	-11.4532	7.3186	-2.5545	2.4165	-0.7008	-1.2084	0.1841	-7.1519	0.333	0.333	0.333	0.333	0.333	0.333	0.333	0.333	0.333	0.333	0.333	0.333	0.333	0.333	0.333	0.333	0.333	0.333	0.333	6.327	1.7049	2.8928	9	246	0.161268147596122	0	1
"247"	9	46	4	0	0	1	8	1	1	2.346	1.3932	-2.4908	2.6526	7.2461	1.0862	2.6118	-5.1448	-4.4633	-0.7448	-3.5138	5.3421	-3.2011	2.2043	0.7273	-1.138	-1.5689	-4.3364	12.12	3.3068	-10.1712	0.333	0.333	0.333	0.333	0.333	0.333	0.333	0.333	0.333	0.333	0.333	0.333	0.333	0.333	0.333	0.333	0.333	0.333	0.333	6.327	1.665	4.0137	9	247	0.852711750231284	1	0
"248"	9	68	4	1	2.145	0	6	1	1	1.837	-0.7769	0.5105	4.606	2.5171	15.3003	2.9866	3.2522	-7.9574	2.6685	-2.9111	5.3665	-0.2384	3.4841	5.7024	5.9156	-1.245	10.1679	-1.3038	-0.199	-3.0208	0.2979	0.2641	0.3073	0.2578	0.5318	0.2069	0.3616	0.247	0.4899	0.314	0.4384	0.3335	0.2243	0.3629	0.2313	0.3162	0.3804	0.4528	0.3166	6.3344	1.4438	3.2871	9	248	0.608133806232989	1	0
"249"	9	14	4	4	8.58	0	3	1	1	0.609	7.9966	13.6793	15.506	9.1046	16.3288	-1.3539	11.3494	6.6816	13.7223	10.435	14.3136	7.6335	0.2713	8.2801	10.0725	11.7642	3.8435	1.7824	5.0429	7.0034	0.2181	0.2554	0.3812	0.4428	0.3199	0.2476	0.3317	0.4919	0.2425	0.2124	0.5095	0.4543	0.4059	0.2299	0.3357	0.2626	0.3159	0.3938	0.2719	6.3231	1.5739	2.1933	9	249	-0.49593701127224	1	0
"250"	9	61	4	1	2.145	1	2	1	1	0.614	3.3308	-5.3023	-3.1507	4.4229	5.9171	-1.1084	5.2466	1.1913	6.5912	-3.0221	12.7395	1.3392	0.0815	3.7412	-1.9529	-1.6828	-2.501	0.5519	13.0776	2.8002	0.333	0.333	0.333	0.333	0.333	0.333	0.333	0.333	0.333	0.333	0.333	0.333	0.333	0.333	0.333	0.333	0.333	0.333	0.333	6.327	1.4762	2.0976	9	250	-0.487760350834995	1	0
"251"	9	21	4	4	8.58	1	2	1	1	0.544	6.9549	19.3922	5.545	17.2859	6.9854	7.5916	19.1277	8.1211	11.2007	3.7856	10.5455	3.1328	2.0647	5.9827	11.2079	9.571	3.9259	8.5288	4.1498	5.7825	0.333	0.333	0.333	0.333	0.333	0.333	0.333	0.333	0.333	0.333	0.333	0.333	0.333	0.333	0.333	0.333	0.333	0.333	0.333	6.327	1.6748	2.211	9	251	-0.608806032126194	1	0
"252"	9	66	4	-1	-2.145	0	4	-1	1	1.19	-2.8818	-5.8484	-7.9666	-10.0978	-12.8429	-2.0683	-1.5562	7.2144	-4.3278	-2.8387	6.6878	3.5305	-2.2034	-2.4084	-1.0389	-2.508	-4.3305	-3.926	3.136	1.3801	0.2083	0.2808	0.4153	0.3493	0.3121	0.2604	0.3812	0.3408	0.2801	0.2451	0.4665	0.5069	0.2477	0.221	0.4793	0.3539	0.3027	0.4523	0.2169	6.3207	1.6114	2.8239	9	252	0.173953307123438	0	1
"253"	9	59	4	-1	-2.145	1	6	-1	1	1.798	-0.9833	-2.2877	-2.9675	-7.3885	-7.9008	-3.1463	-3.2108	-4.2044	-0.7284	3.3922	1.9997	-0.6697	-1.5104	-14.5363	10.6499	-3.4954	1.9016	-5.2448	-3.2898	-1.039	0.333	0.333	0.333	0.333	0.333	0.333	0.333	0.333	0.333	0.333	0.333	0.333	0.333	0.333	0.333	0.333	0.333	0.333	0.333	6.327	1.5474	3.365	9	253	0.586674936049429	0	1
"254"	9	41	4	2	4.29	0	2	1	1	0.557	4.6193	11.1451	-0.9424	8.0063	3.2668	6.0748	2.3852	6.617	7.096	5.8199	-4.0024	-4.2224	9.9748	-0.6825	-3.15	12.3877	3.5303	7.9837	6.8925	2.1019	0.2807	0.3123	0.2558	0.2022	0.3742	0.3249	0.2784	0.4209	0.2772	0.3551	0.2958	0.3364	0.4107	0.2062	0.5131	0.3836	0.2985	0.5317	0.2755	6.3332	1.6702	2.2413	9	254	-0.585190039054853	1	0
"255"	9	47	4	1	2.145	1	5	-1	0	1.591	-0.9053	6.3779	-1.8758	-5.0215	7.3223	8.8141	-4.4611	-2.4197	2.9556	13.3781	2.0228	4.3512	-3.7393	3.0261	2.3737	8.5316	1.1636	-1.4638	4.3195	-3.1176	0.333	0.333	0.333	0.333	0.333	0.333	0.333	0.333	0.333	0.333	0.333	0.333	0.333	0.333	0.333	0.333	0.333	0.333	0.333	6.327	1.5806	3.1918	9	255	0.46436274935565	0	1
"256"	9	62	4	2	4.29	1	5	1	1	1.526	4.541	6.9279	-0.8167	9.8939	4.6754	-1.6879	10.0501	-0.1545	5.5048	0.8773	7.9821	8.7356	7.1495	8.6758	11.5526	-6.4264	6.7004	-1.5143	-1.5406	5.4354	0.333	0.333	0.333	0.333	0.333	0.333	0.333	0.333	0.333	0.333	0.333	0.333	0.333	0.333	0.333	0.333	0.333	0.333	0.333	6.327	1.7239	3.2601	9	256	0.422649932862265	1	0
"257"	9	43	4	-4	-8.58	1	2	-1	1	0.666	-11.6461	-10.8543	-5.2418	-6.8891	-1.9458	-18.0534	-11.5326	-5.3876	-8.0763	-4.1019	-16.368	-1.4323	-15.5555	-1.3336	-12.2407	-8.2377	-10.1548	-8.6037	-10.4171	-3.0703	0.333	0.333	0.333	0.333	0.333	0.333	0.333	0.333	0.333	0.333	0.333	0.333	0.333	0.333	0.333	0.333	0.333	0.333	0.333	6.327	1.505	2.1838	9	257	-0.406465608441748	0	1
"258"	9	35	4	4	8.58	1	2	1	1	0.47	10.5706	14.7887	8.6433	8.6427	3.02	11.8773	17.0384	1.116	6.871	4.9644	10.8496	5.3751	9.6846	4.6909	14.2647	3.7811	13.472	16.0044	2.1081	3.8758	0.333	0.333	0.333	0.333	0.333	0.333	0.333	0.333	0.333	0.333	0.333	0.333	0.333	0.333	0.333	0.333	0.333	0.333	0.333	6.327	1.4082	1.8869	9	258	-0.755022584278033	1	0
"259"	9	11	4	0	0	0	6	1	1	1.641	-0.5885	3.8578	0.575	-4.0982	10.7268	-3.6985	6.5229	-1.5284	-0.3748	-4.6565	-0.5361	-0.7822	-3.8456	-11.6112	3.1731	1.1594	-1.2588	-3.6362	4.992	6.2927	0.216	0.5043	0.2416	0.3346	0.2615	0.3609	0.4098	0.452	0.315	0.2086	0.4435	0.2678	0.3716	0.2213	0.3777	0.2045	0.2348	0.4722	0.4359	6.3335	1.518	3.1756	9	259	0.495305812107954	1	0
"260"	9	33	4	1	2.145	1	8	1	1	2.537	3.915	-0.6581	0.3735	1.0351	-3.6495	9.085	0.6861	14.6445	4.7862	-3.5808	9.8311	-0.353	-3.1199	-1.1607	5.9142	-2.8672	3.7566	-3.8016	1.607	5.6484	0.333	0.333	0.333	0.333	0.333	0.333	0.333	0.333	0.333	0.333	0.333	0.333	0.333	0.333	0.333	0.333	0.333	0.333	0.333	6.327	1.6169	4.1545	9	260	0.930982280617145	1	0
"261"	9	69	4	2	4.29	0	4	1	1	1.335	6.4182	-2.0805	1.7058	2.539	4.6619	1.0368	6.4489	0.3016	9.1111	11.2585	10.7282	6.8226	9.8713	3.4596	11.6632	-4.7949	0.4863	-2.6807	1.2196	8.5707	0.4525	0.2598	0.309	0.3881	0.3441	0.4593	0.41	0.4924	0.2347	0.2969	0.322	0.2607	0.3004	0.2443	0.3221	0.4551	0.2683	0.3003	0.2101	6.3299	1.6787	3.0189	9	261	0.288931291852213	1	0
"262"	9	15	4	-4	-8.58	1	3	-1	1	0.89	-10.6581	-5.7127	-6.8393	-10.1702	-11.2896	-16.6335	-15.7726	-5.5629	-10.7452	-12.515	-7.7302	-3.7818	-9.5855	4.0945	-9.4676	-12.182	-13.1143	-0.8718	-7.9673	-4.378	0.333	0.333	0.333	0.333	0.333	0.333	0.333	0.333	0.333	0.333	0.333	0.333	0.333	0.333	0.333	0.333	0.333	0.333	0.333	6.327	1.5053	2.4071	9	262	-0.116533816255952	0	1
"263"	9	39	4	0	0	0	6	1	0	1.357	4.5399	-1.7937	5.1312	-3.7857	-9.3242	4.9374	-3.288	2.0443	-8.8196	1.7665	7.5526	5.2055	-4.2619	3.1627	-6.3266	-1.5618	0.6477	-2.7885	3.2328	4.6939	0.2346	0.2095	0.3443	0.2094	0.3101	0.2225	0.3357	0.2918	0.2174	0.3428	0.3952	0.2519	0.4931	0.5327	0.4062	0.2323	0.455	0.3514	0.5004	6.3362	1.4738	2.8408	9	263	0.305276380852732	1	0
"264"	9	12	4	1	2.145	0	3	1	1	1.044	4.2806	5.1883	12.781	3.7671	5.9302	-2.3016	-2.1064	0.8948	7.9527	-1.0037	-3.987	7.1951	4.3046	7.085	0.7226	-4.1176	4.5724	0.8046	-5.8212	-2.8739	0.2393	0.5201	0.3265	0.2206	0.3597	0.4706	0.2801	0.4253	0.3261	0.3736	0.4161	0.2739	0.2286	0.4431	0.2774	0.2374	0.2755	0.2237	0.4064	6.3242	1.6275	2.6786	9	264	0.043059489460447	1	0
"265"	9	19	4	1	2.145	1	7	-1	0	2.211	-0.8043	8.5899	-2.4673	1.677	11.1099	0.7603	0.7613	5.396	-3.0971	3.0449	0.3754	-1.6946	14.1316	-2.7146	2.1787	-3.9755	5.7891	7.6305	0.3866	-2.6755	0.333	0.333	0.333	0.333	0.333	0.333	0.333	0.333	0.333	0.333	0.333	0.333	0.333	0.333	0.333	0.333	0.333	0.333	0.333	6.327	1.7192	3.9284	9	265	0.793444901875309	0	1
"266"	9	6	4	2	4.29	1	4	1	1	1.327	4.421	1.6268	-1.6867	3.9147	-1.6027	6.8716	2.5462	10.0218	8.0687	5.7021	-0.5376	14.8554	-0.7669	11.9606	3.4541	9.6601	-3.6774	5.956	3.3072	-0.2504	0.333	0.333	0.333	0.333	0.333	0.333	0.333	0.333	0.333	0.333	0.333	0.333	0.333	0.333	0.333	0.333	0.333	0.333	0.333	6.327	1.6122	2.9443	9	266	0.28292075535007	1	0
"267"	9	18	4	0	0	1	4	1	1	1.193	2.5194	-1.3308	-1.009	-3.806	-9.5477	3.7477	-8.6537	5.467	-4.7418	0.1444	12.8113	-1.553	0.674	-0.4266	-3.7267	3.178	-3.242	3.3888	3.6701	1.2595	0.333	0.333	0.333	0.333	0.333	0.333	0.333	0.333	0.333	0.333	0.333	0.333	0.333	0.333	0.333	0.333	0.333	0.333	0.333	6.327	1.6675	2.8772	9	267	0.176471143115779	1	0
"268"	9	22	4	-4	-8.58	0	3	-1	1	0.587	-9.547	-14.8909	-4.9859	-13.1173	-10.3297	-11.2697	-8.0172	-12.1163	-3.5436	-7.9811	-7.0145	-7.7196	-5.4586	-1.5465	-9.306	-7.3961	-13.8688	-18.2189	-9.2432	4.7955	0.2976	0.209	0.3	0.436	0.4854	0.4264	0.2674	0.4349	0.2991	0.2226	0.2664	0.3579	0.4244	0.2726	0.2197	0.3616	0.3218	0.2676	0.4642	6.335	1.7057	2.3042	9	268	-0.532730459154041	0	1
"269"	9	56	4	4	8.58	0	2	1	1	0.562	4.8989	10.9854	8.0237	8.6142	5.4274	5.9713	-4.4318	6.2567	4.9233	18.0118	9.5843	11.2041	7.8288	8.5962	13.0867	3.5245	8.9615	12.3322	17.9971	9.2292	0.3134	0.2755	0.2412	0.4902	0.4301	0.2696	0.4193	0.4524	0.2014	0.414	0.4833	0.4457	0.252	0.225	0.3782	0.2347	0.3484	0.2003	0.2561	6.3306	1.4924	2.0629	9	269	-0.576253429088446	1	0
"270"	9	53	4	0	0	0	5	1	1	1.654	0.9314	1.6916	-3.9856	4.7205	2.473	0.7542	-9.7904	0.504	-3.7954	3.0099	-0.8636	10.6319	-4.8054	-2.3963	-4.5136	3.9811	5.7179	-6.021	7.1199	-4.8052	0.2519	0.4295	0.3065	0.5293	0.2706	0.301	0.2691	0.2168	0.5009	0.4474	0.3108	0.4309	0.5054	0.2406	0.2694	0.316	0.2321	0.2999	0.2072	6.3353	1.4047	3.0719	9	270	0.5031965966015	1	0
"271"	9	55	4	2	4.29	0	13	1	1	4.334	1.8046	-4.1839	-1.0882	6.0278	3.2626	7.1305	3.8321	12.3519	-0.9004	3.0505	5.8845	16.1178	5.6736	3.5055	5.1174	0.6571	-0.5232	1.3971	11.6614	6.5147	0.265	0.3212	0.2599	0.5022	0.337	0.4116	0.3773	0.2148	0.3188	0.3924	0.2889	0.3218	0.4536	0.2243	0.2525	0.5099	0.2063	0.4302	0.242	6.3297	1.4136	5.7685	9	271	1.46649090311417	1	0
"272"	9	27	4	2	4.29	0	10	1	1	3.145	-0.5572	4.74	5.4282	10.3561	6.9788	2.794	4.5803	2.6006	7.949	1.6588	9.7213	4.4635	0.2642	0.5806	1.0938	-1.7168	4.6406	18.0243	6.0799	-4.8857	0.319	0.2405	0.3095	0.335	0.2511	0.3633	0.2397	0.3851	0.3237	0.4504	0.2143	0.4293	0.2085	0.3183	0.4688	0.2698	0.3623	0.4677	0.3668	6.3231	1.6229	4.7789	9	272	1.1458138901524	1	0
"273"	9	31	4	-1	-2.145	1	10	-1	1	3.212	-6.3164	2.9183	1.7669	-1.9989	0.6919	3.1359	0.5297	-0.322	1.4267	-8.6925	-4.8121	-0.5548	3.8849	-1.0261	-4.8904	-2.5522	-4.186	-3.8514	0.2047	-17.385	0.333	0.333	0.333	0.333	0.333	0.333	0.333	0.333	0.333	0.333	0.333	0.333	0.333	0.333	0.333	0.333	0.333	0.333	0.333	6.327	1.4476	4.6631	9	273	1.16689379608452	0	1
"274"	9	29	4	-4	-8.58	1	3	-1	1	0.975	-11.5844	-12.1695	-6.6543	-7.1678	-4.9597	-7.5554	-1.9031	-16.3074	-17.5961	-0.5128	-12.0625	-9.1343	-6.8988	-16.7712	-9.829	-10.2971	-9.8821	-4.9096	-1.5291	-3.7447	0.333	0.333	0.333	0.333	0.333	0.333	0.333	0.333	0.333	0.333	0.333	0.333	0.333	0.333	0.333	0.333	0.333	0.333	0.333	6.327	1.4893	2.4761	9	274	-0.0253178079842899	0	1
"275"	9	30	4	-2	-4.29	1	6	-1	1	1.827	-1.8324	-2.9921	1.9558	-1.7005	-5.9618	-10.4786	-4.1782	3.8693	2.9327	4.2957	-6.4103	-1.6788	-5.8987	-7.1687	-11.3445	-9.7071	-6.5219	-10.9374	-2.596	-9.8756	0.333	0.333	0.333	0.333	0.333	0.333	0.333	0.333	0.333	0.333	0.333	0.333	0.333	0.333	0.333	0.333	0.333	0.333	0.333	6.327	1.505	3.344	9	275	0.60267527739587	0	1
"276"	9	32	4	0	0	1	4	-1	0	1.313	-4.9105	3.1768	-4.9325	0.7134	5.4698	-9.764	0.3512	-4.119	-5.9856	-3.4693	-0.8419	-3.5896	4.3329	-0.0786	5.229	5.8887	7.4814	3.1089	7.3877	-3.7666	0.333	0.333	0.333	0.333	0.333	0.333	0.333	0.333	0.333	0.333	0.333	0.333	0.333	0.333	0.333	0.333	0.333	0.333	0.333	6.327	1.4781	2.7968	9	276	0.272314595320659	0	1
"277"	9	3	4	-1	-2.145	1	3	-1	1	0.82	-2.1852	-2.2271	-7.1494	-2.8155	0.5589	0.6232	-7.9794	-3.7915	-10.4565	2.6165	-2.5415	-1.5953	4.7116	4.0042	-7.2964	-2.3503	10.6216	-3.951	-8.0367	-4.3948	0.333	0.333	0.333	0.333	0.333	0.333	0.333	0.333	0.333	0.333	0.333	0.333	0.333	0.333	0.333	0.333	0.333	0.333	0.333	6.327	1.4934	2.3203	9	277	-0.198450938723838	0	1
"278"	9	50	4	-4	-8.58	0	3	-1	1	0.555	-11.8721	-16.7171	-4.4142	-3.1449	-3.3973	-14.6116	-4.0057	-7.8127	-9.2674	-6.8101	1.6114	-16.2936	-16.3602	-7.9382	-9.8989	-12.4072	-6.6419	-5.1958	-5.7673	-9.1568	0.2877	0.204	0.4176	0.4538	0.2086	0.3234	0.2467	0.3044	0.2673	0.3689	0.337	0.2515	0.5075	0.3653	0.3976	0.3395	0.2521	0.4829	0.3114	6.3272	1.6805	2.2388	9	278	-0.588787165235702	0	1
"279"	9	9	4	-2	-4.29	0	1	-1	1	0.323	-8.671	-3.8358	2.4422	-7.1779	2.7339	-2.0254	-7.3002	-3.5583	-10.0211	-3.2507	5.1744	-7.7968	-9.4595	-9.5413	-6.5038	0.2852	-7.6975	-5.1984	-8.7063	5.936	0.3676	0.2559	0.3331	0.3707	0.2895	0.3904	0.4919	0.3349	0.4782	0.3873	0.343	0.2945	0.2257	0.3315	0.4388	0.2116	0.3402	0.2006	0.2365	6.3218	1.5564	1.8736	9	279	-1.13010295575948	0	1
