"subNo"	"index"	"block"	"level"	"mean"	"periodicity"	"nEvents"	"answer"	"isCorrect"	"rt"	"s1"	"s2"	"s3"	"s4"	"s5"	"s6"	"s7"	"s8"	"s9"	"s10"	"s11"	"s12"	"s13"	"s14"	"s15"	"s16"	"s17"	"s18"	"s19"	"s20"	"t1"	"t2"	"t3"	"t4"	"t5"	"t6"	"t7"	"t8"	"t9"	"t10"	"t11"	"t12"	"t13"	"t14"	"t15"	"t16"	"t17"	"t18"	"t19"	"seqDuration"	"startInterval"	"trialDuration"	"pID"	"Trial"	"rtLog"	"right"	"left"
"1"	3	63	1	4	4	1	5	1	1	1.515	4.926	12.2171	2.2281	5.1757	-2.5518	14.7991	-1.3292	1.9542	3.5161	8.5497	-2.37	3.8359	2.7907	-0.6737	-2.5199	7.2059	0.9489	4.7108	9.4145	8.6228	0.333	0.333	0.333	0.333	0.333	0.333	0.333	0.333	0.333	0.333	0.333	0.333	0.333	0.333	0.333	0.333	0.333	0.333	0.333	6.327	1.5066	3.0154	3	1	0.415415438961332	1	0
"2"	3	67	1	0	0	0	12	-1	1	3.856	-1.0754	5.3656	-1.7511	1.4287	-9.5307	-3.0355	2.6721	1.5692	10.7453	-10.962	-1.6272	6.2685	-0.172	4.4305	1.5245	1.0222	-0.3191	-0.3861	-4.2374	-2.0256	0.4732	0.2077	0.2582	0.523	0.3976	0.2987	0.4092	0.2139	0.4283	0.3356	0.2078	0.2377	0.4908	0.215	0.4707	0.3188	0.2158	0.2536	0.3687	6.3246	1.5572	5.4234	3	2	1.3496303767483	0	1
"3"	3	64	1	-4	-4	0	6	-1	1	1.912	-5.5161	-5.3625	9.7376	-12.1474	-6.8031	0.5313	-3.7565	-3.5098	-9.0417	-6.4787	-4.741	3.7866	-5.2736	-1.3726	-8.7273	1.4579	-4.7862	-5.3028	-5.9597	-7.3123	0.4933	0.2063	0.4652	0.3522	0.2251	0.3212	0.3996	0.2562	0.2282	0.4467	0.3434	0.2696	0.2203	0.4321	0.2457	0.4973	0.3678	0.3022	0.2647	6.337	1.5661	3.4961	3	3	0.64814981462921	0	1
"4"	3	30	1	-2	-2	1	9	-1	1	2.848	-3.0742	3.0875	2.1271	3.8286	-0.7035	-4.23	-7.8364	-13.3527	-2.0412	1.2557	-6.6723	2.3079	6.9251	-0.061	-2.9485	2.3608	-0.3244	-5.3504	-6.7249	-6.744	0.333	0.333	0.333	0.333	0.333	0.333	0.333	0.333	0.333	0.333	0.333	0.333	0.333	0.333	0.333	0.333	0.333	0.333	0.333	6.327	1.6149	4.4823	3	4	1.04661699354973	0	1
"5"	3	5	1	1	1	1	13	1	1	4.023	4.6509	-1.0666	1.5275	-3.5367	-1.9839	2.001	4.3101	0.7122	-6.9759	2.2741	0.4647	8.3259	7.9653	-4.7024	7.9567	-0.5952	-2.2032	10.3588	-3.7473	-6.8075	0.333	0.333	0.333	0.333	0.333	0.333	0.333	0.333	0.333	0.333	0.333	0.333	0.333	0.333	0.333	0.333	0.333	0.333	0.333	6.327	1.4376	5.4739	3	5	1.39202789296765	1	0
"6"	3	49	1	4	4	1	10	1	1	3.048	8.5614	0.0333	11.8494	7.0991	5.337	12.263	1.4147	-2.6576	11.5734	7.8238	4.0101	2.2447	4.6992	-2.3417	5.9488	-5.226	4.1009	3.421	0.3647	-0.8892	0.333	0.333	0.333	0.333	0.333	0.333	0.333	0.333	0.333	0.333	0.333	0.333	0.333	0.333	0.333	0.333	0.333	0.333	0.333	6.327	1.4334	4.4989	3	6	1.1144856378244	1	0
"7"	3	37	1	-2	-2	0	12	1	0	4.276	1.7376	-6.074	-2.2593	-0.3336	-0.7816	7.0878	1.4207	-3.617	-0.0594	1.0417	-9.8174	2.889	-10.9303	-9.2768	-7.6088	-2.7252	-2.5845	6.9822	-3.0657	-3.1331	0.3673	0.2251	0.2876	0.485	0.4594	0.3651	0.205	0.5056	0.2937	0.5216	0.2087	0.4742	0.2049	0.2859	0.2012	0.2576	0.3424	0.2898	0.3401	6.3202	1.5353	5.8271	3	7	1.4530179931628	1	0
"8"	3	24	1	-1	-1	0	4	-1	1	1.092	-1.9164	-12.4154	-3.6362	1.1867	6.3146	5.2515	-5.231	0.4852	3.5558	-3.1206	0.1639	-0.5342	-5.6301	-4.3286	6.8235	5.7373	-3.1538	0.2027	-6.2343	-5.282	0.2352	0.3307	0.5207	0.2027	0.3342	0.5298	0.2493	0.3939	0.2566	0.3557	0.3272	0.3913	0.2558	0.3079	0.217	0.356	0.2115	0.3798	0.4622	6.3176	1.6841	2.7762	3	8	0.0880108773227134	0	1
"9"	3	10	1	-1	-1	0	6	-1	1	1.867	-1.5148	-5.2591	0.2245	-7.7909	-4.3163	9.3934	-4.5771	-5.1384	4.879	-1.5312	-9.4407	-0.3311	4.9115	-0.3081	-5.3752	-1.7139	7.2645	3.2712	-3.48	-0.8505	0.2886	0.4867	0.2126	0.3711	0.3136	0.221	0.4947	0.2002	0.3647	0.2353	0.3624	0.3929	0.2871	0.2204	0.3322	0.4656	0.2124	0.4984	0.369	6.3289	1.5831	3.4517	3	9	0.624332864559586	0	1
"10"	3	56	1	4	4	0	9	1	1	2.657	3.8749	-2.4714	3.5708	0.1785	3.0701	4.727	0.1149	5.6654	11.3394	4.4662	-1.0991	6.5997	4.4037	0.2849	0.2895	3.8653	4.6844	1.7014	20.0095	6.5626	0.313	0.4522	0.2033	0.2966	0.5299	0.2186	0.3508	0.2299	0.3246	0.2511	0.3395	0.4209	0.2324	0.5082	0.4212	0.2609	0.3773	0.2357	0.3606	6.3266	1.7239	4.3907	3	10	0.977197666777676	1	0
"11"	3	61	1	1	1	1	9	-1	0	2.692	-3.9548	-3.2996	6.909	2.3631	3.8031	-1.0335	-5.0973	-0.5387	4.8485	-6.4988	3.3481	2.7555	4.3441	1.6642	5.3527	3.0627	-6.4802	-5.417	0.9565	11.7994	0.333	0.333	0.333	0.333	0.333	0.333	0.333	0.333	0.333	0.333	0.333	0.333	0.333	0.333	0.333	0.333	0.333	0.333	0.333	6.327	1.6413	4.3428	3	11	0.990284411782481	0	1
"12"	3	47	1	1	1	1	13	-1	0	3.997	-2.851	-2.1618	0.1331	2.8587	1.8082	-2.3426	4.2129	-1.5467	-4.8362	2.7283	0.7467	2.0632	-5.0681	6.6291	-2.9485	3.446	15.8483	-3.5057	-2.1207	5.9233	0.333	0.333	0.333	0.333	0.333	0.333	0.333	0.333	0.333	0.333	0.333	0.333	0.333	0.333	0.333	0.333	0.333	0.333	0.333	6.327	1.4738	5.4648	3	12	1.38554407972919	0	1
"13"	3	18	1	0	0	1	8	-1	0	2.438	3.9477	-2.1147	-3.3814	-8.3092	1.3405	-3.698	-2.345	7.2497	-0.5011	-7.0007	-4.7996	1.3419	-7.7034	5.2002	6.6745	4.9167	6.598	-0.6472	5.1411	-0.8415	0.333	0.333	0.333	0.333	0.333	0.333	0.333	0.333	0.333	0.333	0.333	0.333	0.333	0.333	0.333	0.333	0.333	0.333	0.333	6.327	1.7301	4.1888	3	13	0.89117803105908	0	1
"14"	3	20	1	2	2	1	6	1	1	1.994	3.2375	6.941	11.7733	3.0119	5.067	-4.248	6.1256	4.1114	-0.3429	4.1334	-7.5633	4.8189	-1.7093	3.332	-6.6156	1.8556	-5.9141	-0.2905	4.5024	7.0243	0.333	0.333	0.333	0.333	0.333	0.333	0.333	0.333	0.333	0.333	0.333	0.333	0.333	0.333	0.333	0.333	0.333	0.333	0.333	6.327	1.7315	3.7445	3	14	0.690142671539647	1	0
"15"	3	42	1	4	4	0	11	1	1	3.63	5.1177	12.9963	2.7088	-1.0082	5.8187	8.3157	-3.7194	5.5787	0.6893	4.3825	4.7468	-3.767	6.0776	7.2333	10.7081	-1.3607	10.8836	7.9529	-0.3742	-1.2682	0.2578	0.5296	0.2791	0.3464	0.2569	0.459	0.3919	0.2629	0.2261	0.4597	0.261	0.3507	0.2959	0.442	0.2392	0.4044	0.2206	0.3698	0.2742	6.3271	1.7279	5.3646	3	15	1.28923264827676	1	0
"16"	3	53	1	0	0	0	18	-1	1	5.727	-0.7005	0.448	5.5465	6.1374	-0.0488	3.0699	-1.9173	-2.4974	1.5767	5.3327	4.911	-3.6096	-11.2881	3.0893	2.7288	-5.3371	5.655	-7.4393	1.0804	-7.9469	0.2161	0.4646	0.2324	0.4829	0.2889	0.2602	0.2107	0.3646	0.2911	0.2346	0.2096	0.3877	0.5274	0.2998	0.3893	0.4405	0.2831	0.5254	0.2222	6.3312	1.4001	7.1445	3	16	1.74519183341172	0	1
"17"	3	68	1	1	1	0	10	1	1	3.395	3.8069	6.766	-1.0816	-11.3249	-5.5636	3.2423	3.8086	-2.169	9.3298	2.7544	4.7935	-1.9801	1.2434	-0.4644	-2.5608	0.6473	3.5637	9.1064	-3.5945	-1.6376	0.3584	0.463	0.2063	0.3061	0.4204	0.2097	0.4032	0.2986	0.3743	0.4383	0.2225	0.2948	0.4628	0.3576	0.2069	0.3309	0.4518	0.2369	0.2797	6.3222	1.5785	4.9797	3	17	1.22230376101066	1	0
"18"	3	59	1	-1	-1	1	9	-1	1	2.699	-1.9173	-7.5726	2.9795	5.3619	1.536	-6.4309	-9.1319	-4.2944	2.1318	2.7413	2.8526	-2.719	6.1378	-2.3483	-2.3527	-11.5971	-2.2902	-0.4991	3.8095	5.5879	0.333	0.333	0.333	0.333	0.333	0.333	0.333	0.333	0.333	0.333	0.333	0.333	0.333	0.333	0.333	0.333	0.333	0.333	0.333	6.327	1.6736	4.3831	3	18	0.992881334035868	0	1
"19"	3	50	1	-4	-4	0	10	-1	1	2.993	-7.6904	0.5549	-4.9187	1.5881	-4.2634	-6.0956	-4.8268	-4.3055	-2.5224	-5.8325	-0.491	-0.2516	7.0603	-6.7374	0.7293	-2.5809	-12.6949	-12.4632	-0.7513	-12.6051	0.2835	0.3865	0.2839	0.2496	0.3912	0.2728	0.2141	0.3198	0.2545	0.3612	0.3967	0.4761	0.3453	0.4183	0.2089	0.3934	0.3242	0.3899	0.3556	6.3254	1.688	4.6934	3	19	1.09627622887056	0	1
"20"	3	45	1	-1	-1	1	12	-1	1	3.936	-4.331	-2.4915	-6.7637	-1.8501	-3.6795	2.7519	1.1182	2.864	-3.9974	2.4388	2.7759	-5.6572	-10.3064	4.1404	8.3839	-7.3391	7.346	-0.4685	-3.7103	0.5724	0.333	0.333	0.333	0.333	0.333	0.333	0.333	0.333	0.333	0.333	0.333	0.333	0.333	0.333	0.333	0.333	0.333	0.333	0.333	6.327	1.5744	5.5203	3	20	1.37016497919001	0	1
"21"	3	13	1	2	2	0	11	1	1	3.768	0.5884	9.0355	-4.2395	6.1031	0.9553	0.5818	8.5691	5.3328	0.901	-1.5222	1.5614	-2.3366	9.1568	0.2737	-9.2881	7.0138	0.9252	2.957	-3.3445	7.4285	0.5093	0.3067	0.2725	0.3632	0.3894	0.24	0.2816	0.4155	0.3755	0.443	0.2933	0.4878	0.2798	0.2038	0.3747	0.2154	0.2809	0.3483	0.2432	6.3241	1.5165	5.2849	3	21	1.32654435671412	1	0
"22"	3	51	1	-2	-2	0	8	-1	1	2.414	-1.7577	-4.9633	2.1565	-0.6832	-4.3585	-1.6562	1.3581	-0.2874	-1.8379	-0.208	-1.2803	-7.2526	-6.8784	-0.747	-15.848	5.7968	1.4381	2.6113	-9.1772	2.1708	0.2161	0.4823	0.4476	0.2615	0.4368	0.2117	0.2687	0.2985	0.4838	0.3357	0.2743	0.2069	0.4039	0.2324	0.2749	0.5298	0.4528	0.294	0.2055	6.3174	1.5083	3.9317	3	22	0.88128512267534	0	1
"23"	3	17	1	-1	-1	1	14	1	0	4.437	3.7289	-3.4553	-2.9297	-2.0601	1.1899	-0.6042	2.1658	1.9028	0.5737	-8.4062	0.4355	-1.5303	2.4308	-15.4382	6.3887	-0.4124	6.3362	-4.5037	-1.3698	-4.3128	0.333	0.333	0.333	0.333	0.333	0.333	0.333	0.333	0.333	0.333	0.333	0.333	0.333	0.333	0.333	0.333	0.333	0.333	0.333	6.327	1.4334	5.8881	3	23	1.48997847239677	1	0
"24"	3	41	1	2	2	0	15	1	1	5.007	1.6834	4.6003	0.3312	-1.5199	1.2149	-4.297	1.9016	4.5267	2.813	-1.3476	6.5618	0.0792	1.4636	13.7679	3.515	-6.5639	-6.9686	4.1159	4.4916	9.8256	0.225	0.389	0.2613	0.2244	0.4987	0.4414	0.3028	0.526	0.2431	0.2069	0.4231	0.3239	0.2923	0.4261	0.249	0.3356	0.2019	0.3138	0.4356	6.32	1.6152	6.6411	3	24	1.61083693334781	1	0
"25"	3	58	1	-2	-2	1	9	-1	1	2.915	2.3274	-2.5812	-7.3894	-6.6612	4.8684	4.0202	-5.2965	-3.169	1.4661	1.4749	-9.5574	-0.7598	4.8632	-7.523	-3.3572	-11.7093	3.2905	0.5977	-1.6804	-2.7951	0.333	0.333	0.333	0.333	0.333	0.333	0.333	0.333	0.333	0.333	0.333	0.333	0.333	0.333	0.333	0.333	0.333	0.333	0.333	6.327	1.5066	4.432	3	25	1.06986981980246	0	1
"26"	3	39	1	0	0	0	12	-1	0	4.184	1.7966	-1.8604	3.5629	-0.1167	10.3951	-6.0982	3.5845	-3.3449	1.6215	-8.1611	1.2235	0.12	-5.2176	1.4992	-0.0548	-5.2051	0.4669	9.9956	1.4732	-6.2251	0.2458	0.2182	0.4103	0.4406	0.3489	0.3197	0.3995	0.2149	0.5017	0.2808	0.5071	0.4039	0.2223	0.3201	0.2899	0.415	0.2645	0.3067	0.2211	6.331	1.6126	5.8019	3	26	1.43126772676262	0	1
"27"	3	22	1	-4	-4	0	13	-1	1	4.186	0.8779	-4.4211	-1.0759	-5.1658	1.7853	-2.2222	-3.0728	-6.5984	-1.3985	0.6567	-6.1923	-7.8436	-8.0014	-5.9089	0.9285	-17.1917	-7.7027	-9.428	-4.6251	5.8225	0.2936	0.2511	0.2992	0.2635	0.2241	0.4341	0.2587	0.3997	0.4464	0.4081	0.4376	0.2284	0.2586	0.3967	0.3028	0.3443	0.4362	0.4058	0.2475	6.3365	1.4706	5.6697	3	27	1.43174562402381	0	1
"28"	3	35	1	4	4	1	9	1	1	2.946	4.3238	3.6542	2.1717	2.8929	8.1833	8.5599	9.9005	4.705	0.3482	-0.5433	-4.0314	1.9422	6.3781	5.6674	6.0598	16.0671	-6.5887	3.035	1.9422	3.9501	0.333	0.333	0.333	0.333	0.333	0.333	0.333	0.333	0.333	0.333	0.333	0.333	0.333	0.333	0.333	0.333	0.333	0.333	0.333	6.327	1.6533	4.6131	3	28	1.08044831804044	1	0
"29"	3	66	1	-1	-1	0	15	1	0	4.873	-0.2579	4.7113	-4.6343	-4.8684	-2.3509	6.8889	-0.061	2.8433	-3.1681	-7.4706	-8.4325	-1.7538	6.8594	-1.5502	-3.1716	-5.2697	4.6752	6.7047	-5.3991	-6.1795	0.3368	0.279	0.2228	0.2634	0.3301	0.3888	0.3342	0.4866	0.3035	0.3713	0.2427	0.354	0.4799	0.3561	0.2798	0.4652	0.3268	0.2119	0.2892	6.3218	1.4215	6.3065	3	29	1.58370976386137	1	0
"30"	3	44	1	-2	-2	1	12	-1	1	3.67	1.6724	-5.6954	2.1367	-5.6413	-3.2701	4.7779	-2.5157	-6.9358	0.5616	-9.3852	1.3894	-8.1645	5.817	0.5671	5.8852	-5.6496	2.4494	-9.2235	-4.0712	-4.1361	0.333	0.333	0.333	0.333	0.333	0.333	0.333	0.333	0.333	0.333	0.333	0.333	0.333	0.333	0.333	0.333	0.333	0.333	0.333	6.327	1.7139	5.3874	3	30	1.30019166206648	0	1
"31"	3	27	1	2	2	0	20	1	1	6.479	-0.8763	-3.2648	7.9486	4.7732	6.9554	10.326	0.0532	-3.8935	-2.5327	1.0103	-6.1659	9.315	1.2085	1.3672	3.9916	-6.5627	3.458	9.1213	3.9483	0.0659	0.3069	0.2557	0.3298	0.2834	0.4988	0.2843	0.2375	0.3604	0.4681	0.514	0.26	0.3134	0.4863	0.2393	0.2113	0.4991	0.2421	0.3216	0.2145	6.3265	1.4309	7.9126	3	31	1.86856617746782	1	0
"32"	3	3	1	-1	-1	1	20	-1	1	7.038	-0.6793	-6.0914	-4.3365	-6.741	6.6007	3.1993	0.8011	-3.3928	-4.4257	-6.1314	5.6254	-5.1167	-1.6194	-9.6252	4.2118	-2.0296	7.9999	4.0406	-3.8495	1.0426	0.333	0.333	0.333	0.333	0.333	0.333	0.333	0.333	0.333	0.333	0.333	0.333	0.333	0.333	0.333	0.333	0.333	0.333	0.333	6.327	1.4588	8.5054	3	32	1.95132403889939	0	1
"33"	3	12	1	1	1	0	11	-1	0	3.425	-2.9556	4.1214	-1.5322	6.2969	4.036	2.0535	-10.9236	6.7312	-0.2367	2.0848	-0.5172	-4.1194	7.6576	2.1501	-1.635	-0.2249	9.812	-6.6025	3.7443	-0.7926	0.2883	0.3605	0.2795	0.2348	0.3949	0.5196	0.4249	0.2383	0.3151	0.2033	0.4839	0.3743	0.4365	0.3279	0.2234	0.255	0.3801	0.2771	0.3174	6.3347	1.5055	4.9423	3	33	1.23110147171419	0	1
"34"	3	36	1	-4	-4	0	5	-1	1	1.33	-0.2021	-7.6089	-7.6292	-5.1025	-11.688	-0.1131	6.3701	-8.1041	-5.9758	-4.733	0.3981	-4.8539	7.1557	-0.8253	-9.3829	-3.8687	-7.9071	-8.4857	-5.0606	-1.8315	0.229	0.26	0.2195	0.2799	0.4064	0.3098	0.459	0.38	0.2484	0.4766	0.2843	0.5192	0.2735	0.2315	0.3155	0.4396	0.2457	0.2167	0.528	6.3225	1.4584	2.7977	3	34	0.285178942233662	0	1
"35"	3	46	1	0	0	1	12	1	0	3.992	2.8145	-6.2645	1.3314	-1.4874	-5.554	3.2238	0.6477	-3.0132	4.0108	9.4823	-1.0649	-7.2995	-8.7207	2.7082	0.8169	-2.8399	6.7231	0.9882	-3.6824	7.7235	0.333	0.333	0.333	0.333	0.333	0.333	0.333	0.333	0.333	0.333	0.333	0.333	0.333	0.333	0.333	0.333	0.333	0.333	0.333	6.327	1.6341	5.6423	3	35	1.38429235844922	1	0
"36"	3	19	1	1	1	1	15	-1	0	4.924	3.5246	5.0324	0.0981	-0.5385	-5.3345	3.448	-1.8526	0.6572	-0.3559	8.8442	-1.4295	4.6729	-11.9675	-4.7898	3.7581	-0.1775	8.6689	-1.6925	3.9431	5.844	0.333	0.333	0.333	0.333	0.333	0.333	0.333	0.333	0.333	0.333	0.333	0.333	0.333	0.333	0.333	0.333	0.333	0.333	0.333	6.327	1.4847	6.4079	3	36	1.59412120832221	0	1
"37"	3	4	1	0	0	1	20	-1	1	6.534	0.2103	7.3311	0.5578	3.9445	-2.3538	-5.4711	-4.0502	7.03	1.5909	5.6102	-4.5014	3.8149	-4.905	-1.2719	-3.3586	4.469	-12.2925	3.6599	-0.2454	0.5776	0.333	0.333	0.333	0.333	0.333	0.333	0.333	0.333	0.333	0.333	0.333	0.333	0.333	0.333	0.333	0.333	0.333	0.333	0.333	6.327	1.6288	8.1682	3	37	1.87701931317888	0	1
"38"	3	2	1	-2	-2	1	10	-1	1	3.298	0.7058	-10.3279	-8.8656	-5.3544	4.4432	1.0458	-4.9757	-2.2436	2.1626	-1.3006	-5.4225	-0.3199	8.5501	-7.5356	0.1925	6.6794	-1.155	-7.2009	-3.0131	-4.9283	0.333	0.333	0.333	0.333	0.333	0.333	0.333	0.333	0.333	0.333	0.333	0.333	0.333	0.333	0.333	0.333	0.333	0.333	0.333	6.327	1.6157	4.9154	3	38	1.19331622413741	0	1
"39"	3	16	1	-2	-2	1	18	-1	1	5.756	0.6599	-3.6183	-6.4469	-7.2176	2.7662	-3.8286	1.3451	3.617	4.5647	8.5519	0.6413	-3.1126	-9.2301	-0.6551	-4.8341	-10.542	-1.8999	1.0948	-5.4692	-7.9488	0.333	0.333	0.333	0.333	0.333	0.333	0.333	0.333	0.333	0.333	0.333	0.333	0.333	0.333	0.333	0.333	0.333	0.333	0.333	6.327	1.6314	7.3896	3	39	1.75024278902512	0	1
"40"	3	33	1	1	1	1	17	-1	0	5.63	-2.8102	5.9161	1.7536	-5.8068	-4.0577	6.9653	9.5834	-2.0746	-0.8677	-2.743	0.8348	3.8655	-1.1245	-4.6364	8.2035	3.921	-6.2593	-0.9602	2.6523	8.9709	0.333	0.333	0.333	0.333	0.333	0.333	0.333	0.333	0.333	0.333	0.333	0.333	0.333	0.333	0.333	0.333	0.333	0.333	0.333	6.327	1.5949	7.247	3	40	1.7281094421516	0	1
"41"	3	52	1	-1	-1	0	20	-1	1	7.233	1.7502	-6.4188	-1.5437	-0.0648	-1.349	5.6398	1.7893	4.8961	-5.373	-3.7372	3.3871	-1.4606	0.7277	5.3063	-6.3894	2.5508	-1.6234	0.1314	-2.3237	-15.0773	0.3445	0.4406	0.2229	0.2741	0.3938	0.4685	0.2507	0.2852	0.2221	0.2895	0.3648	0.261	0.3702	0.3368	0.5297	0.3424	0.2321	0.4322	0.259	6.3201	1.5414	8.7837	3	41	1.97865388786714	0	1
"42"	3	29	1	-4	-4	1	14	-1	1	4.428	-3.4727	3.793	-6.964	-1.4449	1.2701	-2.3992	-2.7542	-12.892	-4.6526	0.8466	0.4476	-8.2804	-5.2655	-3.5753	-4.6831	-2.703	-14.4318	4.8318	-6.411	-9.8339	0.333	0.333	0.333	0.333	0.333	0.333	0.333	0.333	0.333	0.333	0.333	0.333	0.333	0.333	0.333	0.333	0.333	0.333	0.333	6.327	1.5293	5.9615	3	42	1.48794801484639	0	1
"43"	3	55	1	2	2	0	11	1	1	3.561	2.4711	2.3584	14.0053	8.637	3.3302	-2.6738	0.6677	2.7946	-10.1962	-1.0332	0.983	-0.1333	-1.2519	0.5313	6.0794	0.7148	9.1758	-1.1858	1.0518	4.7597	0.4757	0.2452	0.4065	0.3316	0.4337	0.2366	0.2849	0.2146	0.2543	0.3285	0.429	0.2964	0.2334	0.458	0.2034	0.2629	0.5095	0.3719	0.346	6.322	1.6496	5.212	3	43	1.27004140429564	1	0
"44"	3	54	1	1	1	0	11	1	1	3.629	0.833	3.0977	-1.6625	10.2026	6.3172	2.6957	2.0494	8.1407	4.2219	2.4727	-7.3634	5.0849	1.2268	1.4876	-8.4868	-1.066	3.5102	-5.5338	-3.7938	-5.361	0.2729	0.5264	0.3625	0.2515	0.2051	0.445	0.2988	0.3891	0.2596	0.387	0.295	0.2163	0.5091	0.4468	0.3274	0.2388	0.3425	0.3115	0.2459	6.3311	1.4993	5.1293	3	44	1.28895712823093	1	0
"45"	3	15	1	-4	-4	1	17	-1	1	5.459	-5.7045	-4.401	-4.1707	-0.5842	-1.4963	-4.6637	1.4081	-2.8383	0.3554	2.4985	-0.7872	-3.8423	-5.394	-2.8538	-15.4636	-7.2882	1.5457	-5.5636	-6.2874	-16.2328	0.333	0.333	0.333	0.333	0.333	0.333	0.333	0.333	0.333	0.333	0.333	0.333	0.333	0.333	0.333	0.333	0.333	0.333	0.333	6.327	1.725	7.1934	3	45	1.69726562279962	0	1
"46"	3	11	1	0	0	0	14	-1	0	4.726	-0.3867	-2.6931	-1.1547	2.2106	2.6807	1.3354	6.4774	-9.7331	4.2083	-3.4953	-0.4748	3.0435	5.5171	-9.5843	-1.4878	1.5384	-8.9297	-0.6976	2.794	8.3739	0.2459	0.3275	0.3999	0.4533	0.3106	0.2517	0.2792	0.4362	0.3399	0.4423	0.3054	0.4644	0.2509	0.3139	0.2002	0.3444	0.2254	0.268	0.4749	6.334	1.5716	6.2939	3	46	1.55307917876472	0	1
"47"	3	31	1	-1	-1	1	13	-1	1	4.315	-2.7249	-12.578	-2.2318	0.2633	-6.202	1.3629	1.5851	7.1757	8.5461	-6.0656	-3.1216	-4.6387	-1.8006	-5.062	2.1604	-4.4664	0.3695	3.7391	-0.879	4.3348	0.333	0.333	0.333	0.333	0.333	0.333	0.333	0.333	0.333	0.333	0.333	0.333	0.333	0.333	0.333	0.333	0.333	0.333	0.333	6.327	1.7076	6.0162	3	47	1.46209732453539	0	1
"48"	3	7	1	4	4	1	12	1	1	3.894	4.2068	3.6223	0.999	8.4478	14.2311	5.1614	0.2876	3.2089	5.4857	14.9235	-5.2786	-1.9956	2.9641	2.2068	0.8662	-2.1812	7.2739	3.6137	7.269	3.0724	0.333	0.333	0.333	0.333	0.333	0.333	0.333	0.333	0.333	0.333	0.333	0.333	0.333	0.333	0.333	0.333	0.333	0.333	0.333	6.327	1.6336	5.545	3	48	1.35943690695001	1	0
"49"	3	8	1	-4	-4	0	11	-1	1	3.304	0.0091	1.5067	1.977	-3.8705	-11.7455	-7.3108	3.2506	-5.8375	-9.8867	0.315	1.6453	-8.4139	-6.506	-4.61	-10.3641	-4.0414	2.3456	-11.7906	-0.4823	-7.0386	0.349	0.2344	0.3381	0.2647	0.3857	0.202	0.4454	0.243	0.4875	0.34	0.3748	0.2419	0.4996	0.4012	0.2843	0.2243	0.2767	0.4261	0.3147	6.3333	1.524	4.8382	3	49	1.19513385565873	0	1
"50"	3	48	1	2	2	1	11	1	1	3.564	-1.5473	0.8944	1.6109	-10.7035	2.326	2.7388	10.6654	-0.7913	-4.0464	3.896	7.8917	0.1655	4.3237	4.6048	-0.7458	7.4969	10.2247	-2.4234	1.1002	2.3009	0.333	0.333	0.333	0.333	0.333	0.333	0.333	0.333	0.333	0.333	0.333	0.333	0.333	0.333	0.333	0.333	0.333	0.333	0.333	6.327	1.6526	5.2313	3	50	1.27088350960856	1	0
"51"	3	43	1	-4	-4	1	7	-1	1	2.206	-7.2264	-5.7049	-0.2308	-12.5494	-0.3487	-6.3991	-3.6807	-3.951	6.0199	-14.6221	-2.2075	-4.2916	-7.1406	-0.2949	-0.1781	0.2709	-9.1722	-3.0632	-5.698	1.9186	0.333	0.333	0.333	0.333	0.333	0.333	0.333	0.333	0.333	0.333	0.333	0.333	0.333	0.333	0.333	0.333	0.333	0.333	0.333	6.327	1.6177	3.8402	3	51	0.791180920831311	0	1
"52"	3	9	1	-2	-2	0	11	1	0	3.422	-0.9855	1.4331	-7.031	-7.3437	-1.7582	-1.7394	-0.9843	4.0385	7.1679	-1.2542	4.0915	-4.2044	-2.7143	-9.8831	2.846	2.258	0.6435	-3.0637	-8.2573	-11.8756	0.2065	0.3155	0.2461	0.3124	0.3937	0.2966	0.4298	0.3878	0.3168	0.2039	0.3939	0.4406	0.4026	0.3046	0.3518	0.2834	0.4712	0.2196	0.3568	6.3339	1.531	4.9562	3	52	1.23022517547	1	0
"53"	3	40	1	1	1	0	16	1	1	5.257	-2.3	1.803	12.1154	0.4417	4.4511	-10.0177	-8.0687	1.9593	5.0392	1.3941	-0.8803	-0.7037	2.6024	4.4791	0.6878	4.6991	0.9564	-5.5431	4.5644	2.9263	0.3609	0.4703	0.2427	0.506	0.2416	0.3179	0.3537	0.4216	0.3428	0.2125	0.451	0.2554	0.3096	0.2035	0.277	0.3054	0.2313	0.5066	0.327	6.3367	1.6017	6.8579	3	53	1.65956052183731	1	0
"54"	3	70	1	4	4	0	9	1	1	2.609	1.6427	2.7889	4.4287	5.9521	13.0593	0.7034	8.6403	0.9553	13.816	-4.3147	5.2455	4.1495	3.0033	5.0816	5.4257	-4.3922	-0.5219	11.4769	2.1443	1.1133	0.2346	0.3511	0.4313	0.2093	0.4722	0.2472	0.3556	0.283	0.2008	0.2548	0.2977	0.2488	0.4779	0.3782	0.2138	0.3646	0.506	0.2866	0.5118	6.3253	1.6655	4.2763	3	54	0.958967006154591	1	0
"55"	3	60	1	0	0	1	10	-1	1	3.071	4.1612	-2.3374	1.3769	4.175	-8.4137	2.1682	-10.0015	6.1396	-1.8908	-0.7757	1.7176	-0.4308	-5.7274	3.7496	-7.5444	7.8077	0.251	0.1343	6.4991	-1.6396	0.333	0.333	0.333	0.333	0.333	0.333	0.333	0.333	0.333	0.333	0.333	0.333	0.333	0.333	0.333	0.333	0.333	0.333	0.333	6.327	1.4264	4.5055	3	55	1.12200324145869	0	1
"56"	3	21	1	4	4	1	9	1	1	2.892	5.5623	5.5315	8.7257	-0.9699	13.7656	6.6482	6.668	9.3649	-2.5978	-8.3062	6.9452	-0.2526	-0.4602	2.1399	3.4624	8.0215	4.8533	6.7508	2.7589	1.3042	0.333	0.333	0.333	0.333	0.333	0.333	0.333	0.333	0.333	0.333	0.333	0.333	0.333	0.333	0.333	0.333	0.333	0.333	0.333	6.327	1.6898	4.576	3	56	1.06194830429652	1	0
"57"	3	57	1	-4	-4	1	8	-1	1	2.401	-4.3506	-7.409	-6.8868	2.6819	-3.4886	-10.7436	-1.4916	-2.7923	-5.5099	-5.3255	5.3901	2.2586	-12.5438	-15.1682	-4.8724	-0.4075	-3.3702	-3.6687	1.4467	-4.5596	0.333	0.333	0.333	0.333	0.333	0.333	0.333	0.333	0.333	0.333	0.333	0.333	0.333	0.333	0.333	0.333	0.333	0.333	0.333	6.327	1.5757	3.9851	3	57	0.875885317239116	0	1
"58"	3	26	1	1	1	0	7	1	1	2.276	-2.4672	9.9516	0.8013	-3.4461	9.2882	4.4588	-1.5118	1.6242	-4.5689	0.5546	0.144	-3.6676	-2.34	0.4024	10.1392	-1.5151	-2.0159	-8.1156	4.9427	6.4853	0.227	0.2877	0.3632	0.2283	0.4514	0.2533	0.479	0.4431	0.2065	0.4118	0.2126	0.3232	0.288	0.4685	0.4396	0.3317	0.3931	0.3156	0.2107	6.3341	1.5667	3.86	3	58	0.822419516264084	1	0
"59"	3	38	1	-1	-1	0	20	-1	1	7.016	0.7873	-2.4413	-4.4936	-2.1008	-3.2004	1.5926	6.0819	2.4757	5.1382	0.425	-0.9645	5.3181	0.3084	5.224	-9.1197	-4.1554	-2.8547	0.262	-12.8746	-5.7773	0.5209	0.3501	0.5039	0.2195	0.3611	0.245	0.2024	0.2861	0.4415	0.2329	0.3477	0.2628	0.297	0.3494	0.4905	0.2389	0.3873	0.2586	0.3414	6.3368	1.4097	8.4337	3	59	1.94819325506988	0	1
"60"	3	69	1	2	2	0	20	-1	0	6.554	-2.6781	5.0304	2.7425	-0.6966	-0.8286	8.0567	-4.4941	1.4472	-2.9743	9.2308	2.2667	3.2645	-3.0507	15.5636	-1.5259	2.1629	0.8987	-1.5816	6.1804	2.0064	0.3673	0.3389	0.2976	0.2195	0.4185	0.3224	0.2206	0.271	0.4243	0.2815	0.4961	0.3227	0.2278	0.43	0.2472	0.2772	0.3853	0.4388	0.3455	6.3322	1.5315	8.1047	3	60	1.88007555027662	0	1
"61"	3	14	1	4	4	0	6	1	1	2.092	0.9186	7.3006	14.1396	4.2737	9.2918	6.5229	5.0265	5.2305	7.1772	-0.3491	10.3331	0.1532	3.5573	-10.7781	-0.6368	3.1511	4.3293	2.926	3.0901	6.1883	0.3489	0.3154	0.2252	0.4396	0.4725	0.3726	0.3386	0.2922	0.3526	0.2429	0.2139	0.3919	0.3433	0.2513	0.4615	0.5103	0.2366	0.3154	0.2123	6.3366	1.4356	3.543	3	61	0.738120546202677	1	0
"62"	3	28	1	4	4	0	10	1	1	3.507	-0.0262	5.9794	-1.93	8.6652	0.9786	1.9593	1.9191	11.8179	5.0551	10.1976	4.4419	4.3608	2.7734	5.6053	1.4509	12.9831	5.7833	7.0361	-3.2416	-6.3915	0.4894	0.232	0.3049	0.3751	0.517	0.2589	0.2004	0.5145	0.2261	0.4236	0.2666	0.3263	0.2547	0.2018	0.4971	0.4233	0.2526	0.3113	0.2579	6.3337	1.4069	4.9246	3	62	1.25476097115804	1	0
"63"	3	62	1	2	2	1	17	1	1	5.53	4.4513	-6.391	3.0036	-0.6135	0.106	5.021	4.8543	0.6719	-8.1443	-1.0231	13.476	2.6703	1.648	2.3917	0.8926	5.4589	0.0262	-0.7148	0.8113	12.5912	0.333	0.333	0.333	0.333	0.333	0.333	0.333	0.333	0.333	0.333	0.333	0.333	0.333	0.333	0.333	0.333	0.333	0.333	0.333	6.327	1.5754	7.1139	3	63	1.71018781553424	1	0
"64"	3	32	1	0	0	1	15	-1	1	4.751	2.7594	2.7741	-2.5237	-1.2985	-6.8482	4.2335	-2.5439	5.6638	8.5907	3.6067	5.017	-10.5102	-0.239	0.9008	-8.8504	-1.4014	-4.2077	-1.2247	0.682	5.3448	0.333	0.333	0.333	0.333	0.333	0.333	0.333	0.333	0.333	0.333	0.333	0.333	0.333	0.333	0.333	0.333	0.333	0.333	0.333	6.327	1.4698	6.2184	3	64	1.55835512220478	0	1
"65"	3	65	1	-2	-2	0	14	-1	1	4.42	-3.3925	-5.4545	-1.0622	-6.9705	-2.9488	-0.2576	3.0308	-1.0292	1.5844	-6.6393	-1.3155	-4.1405	0.675	-6.0745	3.1958	-9.4977	1.3762	-2.019	11.7918	-8.8581	0.3321	0.2442	0.3351	0.5309	0.4069	0.2061	0.353	0.5241	0.2458	0.3544	0.265	0.3908	0.2214	0.2523	0.3252	0.4389	0.2764	0.2399	0.3908	6.3332	1.7026	6.1209	3	65	1.48613969608961	0	1
"66"	3	6	1	2	2	1	16	1	1	5.231	5.8855	-3.1199	4.048	0.1296	3.498	12.0077	0.6677	-3.3317	1.6149	-2.1113	2.7014	-6.8545	8.9679	-1.6442	-4.4328	5.0287	6.1805	-1.3494	9.7635	3.3441	0.333	0.333	0.333	0.333	0.333	0.333	0.333	0.333	0.333	0.333	0.333	0.333	0.333	0.333	0.333	0.333	0.333	0.333	0.333	6.327	1.4717	6.7153	3	66	1.65460246438847	1	0
"67"	3	23	1	-2	-2	0	7	-1	1	1.977	2.0228	3.437	-1.4186	-8.1517	9.1884	-7.3394	1.0392	-3.5244	0.0549	-3.5923	-0.2608	-10.322	3.8409	-8.3727	-7.5057	-0.4626	-4.5681	-6.724	2.3135	-1.1218	0.3004	0.2357	0.4094	0.3451	0.2795	0.3437	0.256	0.3546	0.3933	0.2183	0.302	0.3755	0.4516	0.3554	0.4346	0.3042	0.2471	0.4504	0.2704	6.327	1.5167	3.5112	3	67	0.68158054418848	0	1
"68"	3	1	1	-4	-4	1	4	-1	1	1.236	-2.5349	-12.0176	-8.6872	0.5686	-4.6464	-4.9054	-4.7455	-8.4843	-5.6923	2.9918	-12.8225	-1.9296	-3.9046	-4.112	-9.1574	-3.9885	-1.4904	7.2398	-6.1719	3.5665	0.333	0.333	0.333	0.333	0.333	0.333	0.333	0.333	0.333	0.333	0.333	0.333	0.333	0.333	0.333	0.333	0.333	0.333	0.333	6.327	1.4512	2.703	3	68	0.211880359035499	0	1
"69"	3	34	1	2	2	1	8	1	1	2.348	-1e-04	5.3814	8.0513	-2.1927	-2.0725	7.9646	2.3733	-7.2279	3.4177	-0.6866	2.2542	-0.4151	6.0906	-2.5144	-0.3206	7.3362	0.9047	-7.0841	10.8951	6.186	0.333	0.333	0.333	0.333	0.333	0.333	0.333	0.333	0.333	0.333	0.333	0.333	0.333	0.333	0.333	0.333	0.333	0.333	0.333	6.327	1.4072	3.7656	3	69	0.85356390196585	1	0
"70"	3	25	1	0	0	0	16	-1	1	5.148	0.5885	-1.714	3.041	4.7753	-11.6308	-4.0271	-0.1079	1.9939	1.868	0.1989	2.5948	0.5572	4.5758	-2.9503	-12.2279	1.932	2.6836	-0.5968	9.4583	-1.7766	0.4605	0.3009	0.3601	0.2114	0.3554	0.4612	0.2241	0.3787	0.2348	0.3018	0.2086	0.3353	0.2279	0.4908	0.2932	0.3446	0.4566	0.3722	0.318	6.3358	1.5679	6.732	3	70	1.63860828973388	0	1
"71"	3	37	2	-2	-2	0	8	-1	1	2.635	-2.28	5.1068	7.6545	-11.1999	0.2756	-8.9004	-5.9076	-7.8553	-0.3528	-2.2703	2.4381	0.7713	-7.3526	0.6862	3.7191	0.9986	-8.5622	-2.1459	-0.0258	-3.2579	0.2614	0.3486	0.4506	0.249	0.3532	0.5075	0.3964	0.5044	0.2048	0.3979	0.3113	0.2285	0.2729	0.2025	0.2333	0.3438	0.2858	0.2482	0.5197	6.3198	1.5806	4.2193	3	71	0.968883181993326	0	1
"72"	3	13	2	2	2	0	5	-1	0	1.537	0.72	-1.2854	-0.5059	-2.8139	-0.8673	-0.3126	3.1578	3.6458	1.4859	-2.7716	-1.2105	-0.6065	4.0159	6.4664	18.2322	4.9339	3.5787	-1.8771	-3.1669	8.515	0.2839	0.3897	0.4889	0.2268	0.4951	0.2175	0.3196	0.4454	0.2614	0.2122	0.4853	0.2183	0.4871	0.2593	0.3028	0.3743	0.2128	0.2492	0.4019	6.3312	1.555	3.0876	3	72	0.429832464556459	0	1
"73"	3	35	2	4	4	1	5	1	1	1.403	4.3695	-3.696	4.8138	12.0999	1.0788	10.2347	2.8983	3.6922	7.1275	9.4199	2.6499	-1.6757	1.9596	8.4291	0.0646	-6.0369	11.1137	1.6629	8.5796	3.0116	0.333	0.333	0.333	0.333	0.333	0.333	0.333	0.333	0.333	0.333	0.333	0.333	0.333	0.333	0.333	0.333	0.333	0.333	0.333	6.327	1.5252	2.9373	3	73	0.338612801120324	1	0
"74"	3	55	2	2	2	0	4	1	1	1.125	6.4231	0.1742	10.8917	2.7131	7.0352	0.1624	4.056	-2.2763	12.0448	4.4826	2.0056	2.3473	-7.051	4.8061	-2.5284	4.4533	-1.6213	-2.4389	-5.7564	-0.9004	0.3328	0.2311	0.3461	0.2912	0.3534	0.5264	0.3555	0.2121	0.3561	0.2563	0.3159	0.2031	0.3926	0.4932	0.4249	0.2897	0.3537	0.2834	0.3099	6.3272	1.4468	2.592	3	74	0.117783035656383	1	0
"75"	3	44	2	-2	-2	1	6	-1	1	1.808	0.471	-3.3866	1.2126	-6.5013	-9.6586	1.6775	-2.5586	4.8866	5.5626	-11.8855	4.7717	-3.243	-3.0719	0.1756	-4.775	2.05	-3.7186	2.7815	-3.7151	-10.4042	0.333	0.333	0.333	0.333	0.333	0.333	0.333	0.333	0.333	0.333	0.333	0.333	0.333	0.333	0.333	0.333	0.333	0.333	0.333	6.327	1.6535	3.4752	3	75	0.592221261969985	0	1
"76"	3	41	2	2	2	0	5	-1	0	1.526	-2.2729	9.3178	5.4458	2.5661	-5.0189	7.2374	1.3338	-4.9353	3.4027	-4.9211	2.5517	-4.689	5.5407	9.9128	6.9075	-1.964	0.8872	-2.8662	4.128	6.018	0.2174	0.2437	0.4624	0.3583	0.2902	0.4317	0.5042	0.2315	0.4222	0.3144	0.2109	0.3496	0.4465	0.3073	0.3551	0.4631	0.2322	0.2061	0.2869	6.3337	1.5253	3.0605	3	76	0.422649932862265	0	1
"77"	3	51	2	-2	-2	0	10	-1	1	3.025	-1.876	-3.3463	6.3613	-3.08	-4.6775	-2.918	0.4974	-10.9508	2.7955	-0.3776	0.3549	6.4617	-0.8569	-3.6524	-0.2419	3.3065	-10.6406	-2.1062	-1.3719	-11.7846	0.308	0.2677	0.3408	0.4186	0.3249	0.219	0.3192	0.4302	0.3287	0.366	0.4371	0.2074	0.2794	0.5091	0.369	0.3084	0.3889	0.2737	0.2253	6.3213	1.4831	4.5252	3	77	1.1069110914828	0	1
"78"	3	42	2	4	4	0	7	1	1	2.434	2.0009	8.0397	-4.6602	4.4106	2.349	8.0742	6.4663	5.9105	9.8808	3.3021	6.322	8.8256	-0.7798	-5.5812	-3.1877	1.5086	11.601	7.1569	9.1589	0.1243	0.4508	0.2789	0.4617	0.2203	0.3403	0.3709	0.3168	0.2706	0.2406	0.3194	0.4213	0.5059	0.2059	0.4029	0.3589	0.3842	0.2826	0.2125	0.2836	6.3281	1.583	4.0352	3	78	0.889535994565335	1	0
"79"	3	69	2	2	2	0	11	-1	0	3.458	5.821	5.2818	0.1614	2.7008	-3.6978	-3.5114	-1.5908	0.5379	-3.1738	5.4831	-4.0231	1.8293	-1.3251	-2.9659	14.6921	9.2853	2.082	0.9232	7.3151	2.5917	0.4923	0.3797	0.2339	0.2055	0.2339	0.2735	0.3112	0.2457	0.345	0.26	0.5148	0.355	0.2137	0.3231	0.5038	0.2776	0.4502	0.4937	0.2188	6.3313	1.5724	5.0418	3	79	1.2406903872611	0	1
"80"	3	33	2	1	1	1	15	1	1	4.687	-3.332	9.5693	-4.625	2.6675	-5.8891	1.6566	10.7032	1.3476	2.7109	-3.9893	3.272	7.1563	-4.4849	2.0973	7.7399	4.0774	-1.1341	-0.4816	-3.0626	-4.951	0.333	0.333	0.333	0.333	0.333	0.333	0.333	0.333	0.333	0.333	0.333	0.333	0.333	0.333	0.333	0.333	0.333	0.333	0.333	6.327	1.4993	6.1876	3	80	1.54479271894057	1	0
"81"	3	64	2	-4	-4	0	8	-1	1	2.329	-2.0936	-7.5024	-1.6631	-6.8021	-0.7316	0.4408	-8.4565	-4.9149	2.6776	-1.5818	2.3544	-7.473	6.8031	-3.8001	-6.4428	-13.7815	-9.0842	-4.5092	-2.8391	-10.3547	0.2812	0.4091	0.3009	0.2353	0.4406	0.2932	0.2137	0.3114	0.3379	0.3773	0.2611	0.4127	0.3674	0.2418	0.4816	0.3717	0.2363	0.4041	0.3582	6.3356	1.7179	4.0465	3	81	0.845438990902204	0	1
"82"	3	63	2	4	4	1	10	1	1	3.119	3.8879	6.0124	5.2238	-7.1021	-2.3943	1.566	8.024	4.5633	4.6696	1.2105	11.6708	4.513	-2.334	5.8738	4.7047	6.8753	-3.7884	12.1819	9.1858	4.4954	0.333	0.333	0.333	0.333	0.333	0.333	0.333	0.333	0.333	0.333	0.333	0.333	0.333	0.333	0.333	0.333	0.333	0.333	0.333	6.327	1.5857	4.703	3	82	1.13751243762567	1	0
"83"	3	12	2	1	1	0	12	-1	0	3.485	3.6984	2.274	6.8832	-0.4372	1.2116	3.543	3.6333	-2.2909	-8.4232	1.8803	5.9017	1.0506	5.7794	-3.0192	-9.1466	5.8854	-3.9262	0.6192	-3.8188	9.1659	0.2174	0.2479	0.3412	0.3103	0.2739	0.3972	0.4317	0.2709	0.4332	0.2945	0.2273	0.4566	0.2351	0.484	0.2972	0.4514	0.3376	0.2774	0.3357	6.3207	1.6378	5.1188	3	83	1.24846804421249	0	1
"84"	3	17	2	-1	-1	1	20	-1	1	6.994	-4.9838	0.1697	9.3431	-5.0088	-0.6862	-7.518	5.853	-0.6354	2.2234	-1.7073	-5.0235	7.4077	-3.319	-6.2208	-2.819	3.5883	-9.7006	-0.2249	-4.3922	2.0347	0.333	0.333	0.333	0.333	0.333	0.333	0.333	0.333	0.333	0.333	0.333	0.333	0.333	0.333	0.333	0.333	0.333	0.333	0.333	6.327	1.4515	8.4448	3	84	1.94505263864118	0	1
"85"	3	18	2	0	0	1	7	1	1	2.258	0.219	16.5919	-0.2873	-2.5159	-1.5088	-1.5217	3.8778	2.152	3.2002	-2.8026	-4.9289	-3.4989	2.804	0.0743	-6.4613	0.1258	-6.9977	2.4288	-0.6223	-0.6031	0.333	0.333	0.333	0.333	0.333	0.333	0.333	0.333	0.333	0.333	0.333	0.333	0.333	0.333	0.333	0.333	0.333	0.333	0.333	6.327	1.6528	3.925	3	85	0.81447946572747	1	0
"86"	3	40	2	1	1	0	8	1	1	2.415	2.1424	2.0413	-1.2068	-2.4434	2.1656	7.2882	5.2374	-2.2737	9.4186	1.4537	-2.4	-3.695	3.7835	3.8287	-0.5064	2.332	-0.6087	9.8825	-10.6797	-4.9374	0.2067	0.291	0.3484	0.2382	0.2768	0.4177	0.222	0.4234	0.3452	0.3869	0.2002	0.4392	0.4058	0.3626	0.4193	0.2141	0.4454	0.4187	0.2748	6.3365	1.4032	3.8327	3	86	0.881699287104536	1	0
"87"	3	62	2	2	2	1	18	1	1	5.663	1.3441	8.1562	-3.1517	4.2236	-1.7677	-7.1795	3.7729	-0.4035	2.4203	-5.2032	4.0801	7.0091	3.9642	-1.2549	12.5065	6.7067	1.5373	5.2731	-5.435	1.6733	0.333	0.333	0.333	0.333	0.333	0.333	0.333	0.333	0.333	0.333	0.333	0.333	0.333	0.333	0.333	0.333	0.333	0.333	0.333	6.327	1.4927	7.1638	3	87	1.73395378713167	1	0
"88"	3	60	2	0	0	1	13	-1	1	4.027	-1.6903	-0.3418	6.5907	1.689	-0.9268	2.2967	0.3378	2.5672	3.2839	-2.6782	-11.999	2.7514	-2.4601	-10.2418	-1.1911	-0.943	7.6729	0.0492	7.5616	-3.9361	0.333	0.333	0.333	0.333	0.333	0.333	0.333	0.333	0.333	0.333	0.333	0.333	0.333	0.333	0.333	0.333	0.333	0.333	0.333	6.327	1.6303	5.6616	3	88	1.39302168186932	0	1
"89"	3	31	2	-1	-1	1	17	-1	1	5.496	-3.5418	4.4952	-4.9291	-1.1423	-0.5782	-7.7714	0.4315	3.6386	6.3203	-4.5772	-1.8589	0.2442	3.1252	6.8754	1.667	-12.998	-5.6266	-4.2375	-0.4787	1.6009	0.333	0.333	0.333	0.333	0.333	0.333	0.333	0.333	0.333	0.333	0.333	0.333	0.333	0.333	0.333	0.333	0.333	0.333	0.333	6.327	1.6968	7.1972	3	89	1.70402055492005	0	1
"90"	3	45	2	-1	-1	1	15	1	0	4.707	-4.4109	-2.2646	-10.096	5.8987	-4.225	2.1023	-5.3822	-3.5446	-3.1984	3.9228	2.081	7.1766	0.0043	-2.5959	3.4047	6.6185	-3.6068	1.5391	-10.6738	-3.0752	0.333	0.333	0.333	0.333	0.333	0.333	0.333	0.333	0.333	0.333	0.333	0.333	0.333	0.333	0.333	0.333	0.333	0.333	0.333	6.327	1.7196	6.4245	3	90	1.54905076241901	1	0
"91"	3	9	2	-2	-2	0	15	1	0	5.217	-5.1346	-2.1052	-3.112	-1.4994	-1.7593	-0.5043	-0.3188	-3.2114	0.618	8.0248	-5.6278	-3.527	0.8878	-4.4559	-2.6223	-16.1597	-3.2253	8.487	-2.6412	-3.8971	0.271	0.2451	0.4671	0.5015	0.2859	0.468	0.3251	0.224	0.3978	0.3505	0.3088	0.2829	0.2231	0.3589	0.5082	0.2687	0.2314	0.3853	0.23	6.3333	1.4148	6.6339	3	91	1.65192252404026	1	0
"92"	3	22	2	-4	-4	0	9	-1	1	2.695	-5.0071	4.6739	-0.5442	-7.7175	-6.149	5.6167	-8.7724	-10.3805	-1.4966	-2.743	-3.6122	-5.7789	-11.311	-4.0798	0.7015	-2.8027	-0.2072	-3.5796	-14.2927	-3.5159	0.4635	0.2694	0.3232	0.2737	0.3702	0.2646	0.2233	0.2539	0.3518	0.432	0.5078	0.2028	0.3826	0.3068	0.2275	0.2706	0.4028	0.5033	0.3022	6.3319	1.5295	4.2286	3	92	0.99139820436096	0	1
"93"	3	30	2	-2	-2	1	10	-1	1	3.211	-0.7357	-13.2501	-3.7149	2.2517	0.5258	-3.8508	-1.3757	0.7513	-1.2922	-2.2831	5.0536	-11.0965	-6.2393	-0.296	1.8947	-0.1513	6.0451	-3.9175	0.5135	-8.6673	0.333	0.333	0.333	0.333	0.333	0.333	0.333	0.333	0.333	0.333	0.333	0.333	0.333	0.333	0.333	0.333	0.333	0.333	0.333	6.327	1.4694	4.6947	3	93	1.16658241510738	0	1
"94"	3	25	2	0	0	0	12	-1	1	4.038	4.9979	-2.8621	-4.1256	1.5556	6.4398	2.8365	-2.4691	-4.8021	-2.5173	10.8636	-3.3193	-3.4328	-4.2128	0.7976	-2.5559	1.326	5.5993	6.2203	-2.0409	-9.3047	0.4264	0.3775	0.4764	0.3089	0.2283	0.4355	0.2067	0.4284	0.2513	0.218	0.3561	0.4312	0.2675	0.2069	0.2423	0.4051	0.517	0.2262	0.308	6.3177	1.4614	5.5218	3	94	1.39574951989065	0	1
"95"	3	65	2	-2	-2	0	10	1	0	3.527	1.0445	-0.3225	5.9085	-2.1684	2.8506	-4.8209	3.8931	-2.4161	-0.3681	-9.6191	-8.3615	-4.8324	8.5039	2.3495	-4.6467	-9.3267	-5.2688	-1.0533	-5.8013	-4.7072	0.3516	0.3792	0.2882	0.2617	0.2868	0.4257	0.4909	0.4547	0.2597	0.3798	0.2627	0.3104	0.2013	0.2933	0.4687	0.332	0.2294	0.4463	0.2131	6.3357	1.4002	4.9445	3	95	1.26044765125391	1	0
"96"	3	70	2	4	4	0	8	1	1	2.398	3.5925	8.6634	-0.6657	-5.9633	7.537	10.646	6.9257	7.1291	6.8788	3.811	7.9224	1.0777	5.2017	9.4709	3.9145	1.4426	1.4814	-8.8794	5.8949	3.4369	0.4283	0.4956	0.2917	0.2266	0.3264	0.2556	0.2868	0.4389	0.2525	0.4257	0.3561	0.3195	0.2017	0.2887	0.261	0.3671	0.5101	0.2485	0.3506	6.3314	1.6629	4.0658	3	96	0.874635056605323	1	0
"97"	3	20	2	2	2	1	8	1	1	2.6	0.0127	7.9705	2.6816	10.305	-1.2433	-0.7528	15.0891	-2.7136	-2.5831	-1.5596	1.8275	3.6701	-1.2151	0.7416	-0.5289	-2.863	8.2898	-1.7852	1.3244	3.6691	0.333	0.333	0.333	0.333	0.333	0.333	0.333	0.333	0.333	0.333	0.333	0.333	0.333	0.333	0.333	0.333	0.333	0.333	0.333	6.327	1.6684	4.2847	3	97	0.955511445027436	1	0
"98"	3	34	2	2	2	1	12	-1	0	3.984	-1.0149	5.2239	8.8974	-1.8196	4.8416	2.0936	-11.1385	-0.4959	-0.5572	2.6028	-2.2162	0.0698	2.9111	8.9084	-2.6366	-2.0727	5.3856	5.8565	4.5876	8.9905	0.333	0.333	0.333	0.333	0.333	0.333	0.333	0.333	0.333	0.333	0.333	0.333	0.333	0.333	0.333	0.333	0.333	0.333	0.333	6.327	1.6389	5.6347	3	98	1.38228633972235	0	1
"99"	3	58	2	-2	-2	1	10	-1	1	3.128	1.1298	0.0268	6.6682	-10.3028	-8.6154	-3.8128	2.0733	-6.3576	6.7088	-6.8905	-0.8624	-4.7465	-4.2596	-2.5826	-9.3113	4.8585	-1.8067	1.1418	1.1049	-3.0028	0.333	0.333	0.333	0.333	0.333	0.333	0.333	0.333	0.333	0.333	0.333	0.333	0.333	0.333	0.333	0.333	0.333	0.333	0.333	6.327	1.5501	4.679	3	99	1.14039382268306	0	1
"100"	3	15	2	-4	-4	1	10	-1	1	3.212	-5.2839	-2.5612	-7.8065	0.8384	-9.681	-1.7925	3.2861	-12.79	0.5263	-9.4647	-3.1207	2.4054	-1.6226	-8.1184	1.1739	-0.8045	-6.281	-11.9392	0.4337	-8.3133	0.333	0.333	0.333	0.333	0.333	0.333	0.333	0.333	0.333	0.333	0.333	0.333	0.333	0.333	0.333	0.333	0.333	0.333	0.333	6.327	1.72	4.9298	3	100	1.16689379608452	0	1
"101"	3	6	2	2	2	1	12	-1	0	3.849	2.948	-0.1816	-8.639	-4.6362	9.4776	3.3144	-4.5274	8.9144	-0.2063	3.011	-0.246	1.3092	2.8795	3.7917	-4.8829	0.6535	8.4438	4.3676	9.5146	2.8766	0.333	0.333	0.333	0.333	0.333	0.333	0.333	0.333	0.333	0.333	0.333	0.333	0.333	0.333	0.333	0.333	0.333	0.333	0.333	6.327	1.5163	5.3668	3	101	1.34781337430161	0	1
"102"	3	2	2	-2	-2	1	7	-1	1	2.226	2.6446	-4.1299	2.4226	3.1382	-6.4985	-2.9581	-3.7901	2.6417	-4.1902	-5.6263	-4.5753	-6.839	-6.4453	-1.7712	-8.6957	7.0521	9.5212	-3.8674	-5.465	-2.5882	0.333	0.333	0.333	0.333	0.333	0.333	0.333	0.333	0.333	0.333	0.333	0.333	0.333	0.333	0.333	0.333	0.333	0.333	0.333	6.327	1.56	3.793	3	102	0.800206252853353	0	1
"103"	3	29	2	-4	-4	1	8	-1	1	2.362	-5.6517	-5.528	7.5539	-3.5555	-8.5692	-8.52	-16.102	-0.7793	-0.9692	-1.5338	-8.816	-2.8857	-0.3267	1.0939	-4.7389	-8.1137	-3.3801	0.4243	-5.7048	-2.4998	0.333	0.333	0.333	0.333	0.333	0.333	0.333	0.333	0.333	0.333	0.333	0.333	0.333	0.333	0.333	0.333	0.333	0.333	0.333	6.327	1.4697	3.8457	3	103	0.859508717775171	0	1
"104"	3	50	2	-4	-4	0	9	-1	1	2.739	-6.5984	-4.9118	-3.2684	-10.332	-1.3713	-3.1956	-4.7946	-10.419	-3.1032	-9.1646	3.6337	4.2212	-6.901	4.2956	-6.3767	-7.6257	-3.8272	-12.7473	-0.2289	2.8726	0.4039	0.2666	0.2227	0.2754	0.5309	0.2364	0.3671	0.2261	0.3816	0.3045	0.3772	0.3509	0.3931	0.2968	0.4798	0.3345	0.2355	0.2751	0.3673	6.3256	1.4685	4.2225	3	104	1.00759289028094	0	1
"105"	3	3	2	-1	-1	1	5	-1	1	1.478	-3.4673	-10.9769	0.7042	-9.7036	2.7163	6.6993	-5.4083	7.5719	-1.2774	0.2717	1.3143	-3.6228	0.4672	-4.3847	-3.8207	3.6793	-3.6145	-4.4911	1.6957	5.2755	0.333	0.333	0.333	0.333	0.333	0.333	0.333	0.333	0.333	0.333	0.333	0.333	0.333	0.333	0.333	0.333	0.333	0.333	0.333	6.327	1.504	2.9954	3	105	0.39068982252601	0	1
"106"	3	46	2	0	0	1	6	-1	0	1.8	3.3624	-5.9977	5.1147	-4.2503	3.7658	7.7888	-1.3411	8.2284	1.0479	-9.9541	4.481	-2.9532	-4.8335	-5.3154	1.2947	1.2127	3.0101	1.1579	-0.1527	-5.2328	0.333	0.333	0.333	0.333	0.333	0.333	0.333	0.333	0.333	0.333	0.333	0.333	0.333	0.333	0.333	0.333	0.333	0.333	0.333	6.327	1.6085	3.4171	3	106	0.587786664902119	0	1
"107"	3	32	2	0	0	1	10	1	1	3.279	2.4662	-5.7633	2.5716	-2.803	3.6105	-5.5178	7.1493	9.5968	-3.3629	0.0221	-2.3451	2.3345	-2.1951	1.0381	-4.2505	4.9961	-5.9511	-1.8666	-6.8767	8.1751	0.333	0.333	0.333	0.333	0.333	0.333	0.333	0.333	0.333	0.333	0.333	0.333	0.333	0.333	0.333	0.333	0.333	0.333	0.333	6.327	1.6047	4.8965	3	107	1.18753849786251	1	0
"108"	3	67	2	0	0	0	6	-1	1	1.953	3.3937	1.0225	-3.9351	-14.7201	-1.289	-0.2364	-0.2736	6.9263	0.9295	-0.8432	-2.7258	-0.7253	7.2086	-1.6565	3.7917	2.777	-5.4916	2.6915	-2.9852	5.9315	0.2723	0.3023	0.4749	0.4226	0.3811	0.2564	0.426	0.4759	0.2412	0.2789	0.2235	0.3033	0.4001	0.4352	0.2041	0.4449	0.2339	0.3277	0.2179	6.3222	1.6836	3.6541	3	108	0.669366651894542	0	1
"109"	3	11	2	0	0	0	17	-1	0	5.372	1.1362	-5.612	-2.5013	1.0688	-5.1721	-0.5593	0.295	4.2024	6.8518	-0.8196	5.1096	5.5664	-4.2827	-9.401	-8.6348	3.9611	2.5509	3.8258	-2.5006	6.5394	0.2013	0.5143	0.4608	0.2534	0.3191	0.2058	0.3027	0.266	0.4568	0.2465	0.4223	0.3245	0.4447	0.2424	0.3513	0.2653	0.3219	0.4819	0.2364	6.3175	1.6443	7.0231	3	109	1.68120027866099	0	1
"110"	3	26	2	1	1	0	15	1	1	4.444	0.8403	6.2885	2.379	-6.5938	-6.0037	-1.0169	-1.5174	4.0134	4.6296	-3.5063	3.5204	13.0216	1.719	-5.458	3.4632	-1.5206	-1.9012	-3.6803	3.1921	6.5602	0.3173	0.2128	0.3191	0.2504	0.276	0.2411	0.281	0.4483	0.3436	0.5328	0.2103	0.2616	0.309	0.4263	0.3303	0.3844	0.5107	0.3717	0.2964	6.323	1.4349	5.8783	3	110	1.49155487177738	1	0
"111"	3	24	2	-1	-1	0	13	-1	1	3.702	0.7307	4.5706	-3.9939	1.0443	-2.4958	-2.1839	1.347	-5.1856	-1.3124	-3.6475	-13.8894	-1.9408	1.2684	-8.9375	4.9147	4.1704	7.8856	-3.7748	1.3533	-0.2016	0.2296	0.3177	0.2792	0.3083	0.2511	0.3671	0.4082	0.2864	0.2001	0.2726	0.5162	0.2099	0.4175	0.4555	0.2889	0.3354	0.3966	0.3665	0.4191	6.3258	1.5706	5.2696	3	111	1.30887321415131	0	1
"112"	3	59	2	-1	-1	1	12	1	0	3.915	-3.4713	1.0155	-4.6666	-2.6954	10.3887	7.2606	-7.17	-1.7339	-6.6543	2.3931	1.0402	0.8916	-2.9552	-8.0658	-0.4185	-4.5229	-7.549	1.3075	6.0726	1.0305	0.333	0.333	0.333	0.333	0.333	0.333	0.333	0.333	0.333	0.333	0.333	0.333	0.333	0.333	0.333	0.333	0.333	0.333	0.333	6.327	1.7194	5.632	3	112	1.36481532944277	1	0
"113"	3	1	2	-4	-4	1	11	-1	1	3.549	-8.3233	-13.0751	0.3141	-7.0157	-6.7611	-12.8718	-0.7721	-4.6424	0.8245	1.378	-4.1125	4.5651	-6.0869	-4.5502	-9.3302	-5.6239	-3.1987	4.9049	-4.8996	-0.8375	0.333	0.333	0.333	0.333	0.333	0.333	0.333	0.333	0.333	0.333	0.333	0.333	0.333	0.333	0.333	0.333	0.333	0.333	0.333	6.327	1.4863	5.0494	3	113	1.26666587366436	0	1
"114"	3	47	2	1	1	1	20	-1	0	6.552	4.461	-3.339	1.9243	1.0342	11.0036	5.3043	3.5192	0.3563	-2.4446	-6.3839	-3.4462	4.99	-9.924	3.3134	-4.844	8.0911	1.177	5.015	2.9217	-1.2035	0.333	0.333	0.333	0.333	0.333	0.333	0.333	0.333	0.333	0.333	0.333	0.333	0.333	0.333	0.333	0.333	0.333	0.333	0.333	6.327	1.441	8.0024	3	114	1.87977034655077	0	1
"115"	3	54	2	1	1	0	20	-1	0	6.387	3.5651	-5.8226	-6.0992	-1.2064	-1.2404	3.4433	4.9243	1.1763	-1.0639	-3.291	5.4967	-5.5076	9.2364	6.9185	2.0241	-5.7424	-0.1199	-2.4889	5.9513	8.131	0.2338	0.4315	0.3722	0.4427	0.2408	0.2735	0.4144	0.3329	0.2249	0.3838	0.2054	0.4182	0.3796	0.2786	0.224	0.4705	0.3213	0.2531	0.4162	6.3176	1.5126	7.9047	3	115	1.85426467457945	0	1
"116"	3	39	2	0	0	0	15	1	0	4.763	1.7779	-5.9025	9.5748	-2.4328	1.4273	0.0955	-4.5966	-1.2578	-2.1696	-2.1571	2.2943	4.6206	0.2017	5.9577	-6.2488	-6.4159	-4.9014	11.1499	2.6371	-3.0515	0.2542	0.3107	0.2036	0.5291	0.2366	0.2742	0.4005	0.2135	0.3054	0.4515	0.3288	0.393	0.3048	0.5116	0.3916	0.2137	0.34	0.3909	0.2651	6.3188	1.6044	6.3806	3	116	1.56087772181872	1	0
"117"	3	49	2	4	4	1	9	1	1	2.977	4.1061	4.1595	7.3006	0.8872	7.4497	4.4168	14.461	4.0435	-1.5327	3.9853	10.0115	7.1585	-0.4636	7.9153	-1.4185	-3.2746	-1.4298	8.0165	7.5833	-4.5125	0.333	0.333	0.333	0.333	0.333	0.333	0.333	0.333	0.333	0.333	0.333	0.333	0.333	0.333	0.333	0.333	0.333	0.333	0.333	6.327	1.5676	4.5446	3	117	1.09091608203364	1	0
"118"	3	19	2	1	1	1	15	1	1	4.828	0.0245	-3.1554	5.8772	-7.9767	2.6392	1.0054	-8.204	6.5467	3.0089	7.8995	-1.713	1.3717	7.0222	1.1637	2.6871	3.0949	3.782	-1.16	4.3487	-9.9525	0.333	0.333	0.333	0.333	0.333	0.333	0.333	0.333	0.333	0.333	0.333	0.333	0.333	0.333	0.333	0.333	0.333	0.333	0.333	6.327	1.4974	6.329	3	118	1.57443230323529	1	0
"119"	3	53	2	0	0	0	20	-1	1	7.038	-2.2849	-0.8803	-3.655	-6.5241	4.5326	1.5763	1.5254	2.7507	6.2231	-0.3765	11.7205	-6.2392	4.3083	2.3507	2.7016	-5.0198	-1.5229	-8.6181	3.8684	-5.4044	0.3254	0.5309	0.4467	0.2359	0.2742	0.4646	0.3149	0.261	0.298	0.372	0.3151	0.4349	0.3889	0.2539	0.2271	0.257	0.2929	0.3328	0.2961	6.3222	1.4408	8.4884	3	119	1.95132403889939	0	1
"120"	3	10	2	-1	-1	0	11	-1	1	3.352	0.2242	4.2759	-2.5782	-4.565	4.7745	2.8168	9.9486	-3.891	-12.4112	-4.8297	4.2833	-1.0636	-4.45	-3.5043	-7.8693	0.4568	1.1758	-1.7546	-3.232	0.4202	0.2104	0.3761	0.4286	0.2583	0.3073	0.2018	0.266	0.4402	0.2765	0.3226	0.4112	0.3557	0.469	0.3184	0.4255	0.2543	0.3896	0.2831	0.3287	6.3232	1.4074	4.7687	3	120	1.20955718261984	0	1
"121"	3	56	2	4	4	0	12	1	1	3.547	5.8386	1.3237	-3.9795	-4.0551	7.5743	0.3491	8.358	4.9125	9.6295	8.1134	15.1274	-2.1843	1.8578	1.3031	8.1849	-1.5959	8.7704	5.9784	2.9364	2.5389	0.2296	0.2863	0.2418	0.3183	0.423	0.2535	0.3114	0.3546	0.2804	0.3791	0.3279	0.4039	0.3572	0.4779	0.2048	0.4332	0.3643	0.2841	0.3946	6.3258	1.4668	5.031	3	121	1.26610217579148	1	0
"122"	3	61	2	1	1	1	11	1	1	3.571	2.3721	8.374	-0.2863	2.9621	-1.868	2.2565	11.8679	-4.9099	3.9565	5.8306	-0.838	0.0877	-1.3664	-8.1654	5.7979	-5.8505	-6.1705	3.8979	-1.6469	3.6044	0.333	0.333	0.333	0.333	0.333	0.333	0.333	0.333	0.333	0.333	0.333	0.333	0.333	0.333	0.333	0.333	0.333	0.333	0.333	6.327	1.6277	5.2056	3	122	1.27284566861231	1	0
"123"	3	38	2	-1	-1	0	15	-1	1	4.937	3.7239	-1.504	-3.6773	-4.5933	1.9745	0.2554	-4.9965	3.6738	2.5804	4.0206	6.838	-4.3822	-9.4457	-5.4827	-12.544	3.8207	-1.0972	0.151	1.4538	-0.5098	0.255	0.5083	0.3969	0.2268	0.273	0.2051	0.3978	0.4518	0.2972	0.2621	0.4118	0.2669	0.4432	0.2217	0.3843	0.2893	0.3739	0.2462	0.4235	6.335	1.6038	6.5541	3	123	1.59675785927673	0	1
"124"	3	16	2	-2	-2	1	8	-1	1	2.43	-2.3363	-7.9779	-11.2859	-4.7967	-0.2716	-0.7802	-0.1442	-3.7956	-3.4144	5.5614	-11.0363	-4.3996	3.665	-0.4176	-0.2095	-5.3171	-0.1386	6.3034	6.2661	-5.9136	0.333	0.333	0.333	0.333	0.333	0.333	0.333	0.333	0.333	0.333	0.333	0.333	0.333	0.333	0.333	0.333	0.333	0.333	0.333	6.327	1.5094	3.9477	3	124	0.887891257352457	0	1
"125"	3	68	2	1	1	0	18	1	1	5.872	1.684	4.9921	-1.1936	-2.0011	-2.4833	2.1452	5.1574	5.6249	1.5255	-11.4912	-3.5518	-0.726	3.0626	1.739	-8.9353	3.8276	8.1443	6.5501	1.1491	5.1816	0.5098	0.3505	0.2084	0.2555	0.2919	0.5108	0.2686	0.2083	0.3605	0.2211	0.3974	0.232	0.478	0.3643	0.3329	0.233	0.4461	0.3816	0.2854	6.3359	1.5921	7.4728	3	125	1.77019529131221	1	0
"126"	3	7	2	4	4	1	15	1	1	4.922	6.2586	9.1712	3.9993	3.6572	3.5685	-4.922	10.6992	-0.573	1.7534	-2.0583	-2.6621	5.399	8.754	6.7944	4.59	8.3981	13.9528	4.445	-3.6235	3.4693	0.333	0.333	0.333	0.333	0.333	0.333	0.333	0.333	0.333	0.333	0.333	0.333	0.333	0.333	0.333	0.333	0.333	0.333	0.333	6.327	1.6953	6.6229	3	126	1.59371495196886	1	0
"127"	3	27	2	2	2	0	16	1	1	5.11	-2.8257	-1.6862	9.5234	1.9606	0.0961	-0.1593	1.1621	2.3904	-9.5375	2.8822	2.0122	3.1499	5.3742	9.3188	-7.2721	8.3008	4.0237	-0.5602	5.483	5.7192	0.4983	0.3652	0.2234	0.2883	0.3959	0.2136	0.2481	0.3457	0.2071	0.4168	0.2024	0.3124	0.447	0.2635	0.445	0.2504	0.4272	0.28	0.4936	6.3238	1.452	6.5603	3	127	1.63119940421561	1	0
"128"	3	48	2	2	2	1	20	1	1	6.885	4.9398	-0.7412	-3.7088	5.4673	-1.514	-0.2143	2.097	-3.1132	-2.0872	4.7243	-0.5612	-0.5061	7.6034	-3.0352	9.6417	6.1434	7.8662	-4.1782	-2.9506	12.2067	0.333	0.333	0.333	0.333	0.333	0.333	0.333	0.333	0.333	0.333	0.333	0.333	0.333	0.333	0.333	0.333	0.333	0.333	0.333	6.327	1.6188	8.5021	3	128	1.92934513218062	1	0
"129"	3	14	2	4	4	0	14	1	1	4.246	8.2926	-2.6453	6.1171	-3.648	1.7191	-1.6142	-1.7721	3.4044	9.7774	6.4619	6.3645	1.7211	9.9683	8.6348	4.8917	6.0988	14.3652	2.5582	-0.1364	-2.548	0.2816	0.5066	0.2292	0.3009	0.4756	0.2251	0.3339	0.2847	0.4173	0.3159	0.2353	0.3134	0.219	0.4023	0.3054	0.3877	0.494	0.2155	0.3756	6.3189	1.6085	5.8631	3	129	1.44597736328106	1	0
"130"	3	21	2	4	4	1	7	1	1	2.3	5.3007	-1.2502	-2.8277	5.0679	9.0029	4.0029	-0.531	6.2253	-0.4753	6.2454	-1.0241	15.0052	5.437	1.0636	7.7035	9.8695	9.9655	-4.0368	3.199	2.0834	0.333	0.333	0.333	0.333	0.333	0.333	0.333	0.333	0.333	0.333	0.333	0.333	0.333	0.333	0.333	0.333	0.333	0.333	0.333	6.327	1.5301	3.8505	3	130	0.832909122935104	1	0
"131"	3	52	2	-1	-1	0	16	1	0	5.259	-3.2129	2.4136	0.6955	-5.4697	1.4667	-5.527	-6.4194	4.0427	-4.0092	-2.1649	-0.0729	1.761	9.1918	-8.4651	3.9176	-7.1458	5.7224	-0.2661	-8.228	2.3664	0.361	0.4257	0.2215	0.2494	0.4345	0.3096	0.4841	0.3007	0.2547	0.3204	0.409	0.2185	0.3539	0.3017	0.4607	0.3518	0.3023	0.2331	0.3374	6.3301	1.6678	6.9427	3	131	1.65994089460721	1	0
"132"	3	43	2	-4	-4	1	6	-1	1	1.847	-5.4831	6.879	-9.9374	-9.8865	-3.0023	-2.9439	-9.7333	2.3053	1.7257	-3.2477	-9.0995	2.6658	-6.3669	-3.8573	-11.4732	-5.8654	-3.3125	-5.6936	-3.6996	1.6303	0.333	0.333	0.333	0.333	0.333	0.333	0.333	0.333	0.333	0.333	0.333	0.333	0.333	0.333	0.333	0.333	0.333	0.333	0.333	6.327	1.7181	3.5812	3	132	0.613562701217103	0	1
"133"	3	8	2	-4	-4	0	5	-1	1	1.786	-4.3911	-6.7624	-11.7002	-3.28	7.0449	-1.9652	-4.1116	-1.6099	-1.0771	-0.8329	-11.1316	-9.4788	-10.9293	-0.6752	1.3509	-4.1585	-7.2217	-0.2018	1.4001	-9.1912	0.4881	0.5262	0.2658	0.4583	0.3979	0.3049	0.2265	0.3813	0.2481	0.373	0.273	0.2055	0.4151	0.3185	0.2652	0.2165	0.2837	0.4757	0.2099	6.3332	1.7108	3.503	3	133	0.579978482454307	0	1
"134"	3	23	2	-2	-2	0	10	-1	1	3.185	-2.3179	-4.9143	-0.0769	-0.5033	3.968	-11.5636	-5.8836	-4.3534	-3.4174	-3.8568	1.4581	-6.7852	6.8121	2.9503	-8.4536	-6.2008	6.8531	-3.3954	2.0572	-3.8523	0.4583	0.2712	0.3803	0.3452	0.2351	0.4235	0.4936	0.2817	0.2251	0.3075	0.5142	0.2206	0.3732	0.2392	0.4203	0.3055	0.2553	0.2254	0.3561	6.3313	1.6758	4.869	3	134	1.15845228902413	0	1
"135"	3	57	2	-4	-4	1	7	-1	1	2	-0.6161	-5.9393	-1.2639	-4.8441	-1.2657	3.6515	0.524	-4.4168	-1.1753	-4.7687	4.5797	-1.0385	-8.1286	-2.6636	-3.1815	-10.3704	-15.5916	-8.7048	-12.347	-2.7738	0.333	0.333	0.333	0.333	0.333	0.333	0.333	0.333	0.333	0.333	0.333	0.333	0.333	0.333	0.333	0.333	0.333	0.333	0.333	6.327	1.5959	3.601	3	135	0.693147180559945	0	1
"136"	3	36	2	-4	-4	0	4	-1	1	1.083	-6.6616	-5.6491	0.0349	1.4916	-1.7247	-2.6443	-3.5171	-0.4165	-3.7458	-6.4961	-10.4432	0.1901	-4.1007	-6.7096	-10.3603	-11.3952	8.5692	-6.9467	-10.1868	-0.9341	0.2304	0.4486	0.3361	0.4006	0.2282	0.3974	0.2832	0.323	0.2723	0.2331	0.4811	0.3404	0.2042	0.478	0.3033	0.2137	0.457	0.2035	0.4905	6.3244	1.5603	2.6507	3	136	0.0797349680188535	0	1
"137"	3	28	2	4	4	0	11	1	1	3.563	5.943	-5.3459	4.4031	-5.8011	3.0265	5.5021	1.4163	6.3411	9.8426	3.9549	8.7405	4.6797	-3.929	6.5876	0.4297	3.9031	0.4903	12.4631	10.8204	7.0723	0.2799	0.3438	0.3093	0.4939	0.284	0.5168	0.2169	0.3822	0.2043	0.4149	0.3002	0.2403	0.3153	0.2182	0.3122	0.2532	0.3465	0.4131	0.4853	6.3302	1.6522	5.2136	3	137	1.2706028866237	1	0
"138"	3	4	2	0	0	1	5	-1	1	1.579	-3.8854	-0.4812	-0.4116	5.8863	-1.3632	-3.8758	-1.0466	-0.3481	9.4998	8.7747	-3.4059	-3.2512	-5.1266	-3.1413	8.3239	0.5936	0.9755	0.8022	-10.3374	0.6212	0.333	0.333	0.333	0.333	0.333	0.333	0.333	0.333	0.333	0.333	0.333	0.333	0.333	0.333	0.333	0.333	0.333	0.333	0.333	6.327	1.5835	3.163	3	138	0.456791735273505	0	1
"139"	3	5	2	1	1	1	6	-1	0	1.787	-2.9931	2.9668	-0.0703	-6.903	4.9523	1.4935	-0.7732	8.6705	-2.0345	1.9061	4.34	-10.3629	3.0301	6.5848	8.5042	2.8629	2.9588	2.7404	-1.4219	-5.7819	0.333	0.333	0.333	0.333	0.333	0.333	0.333	0.333	0.333	0.333	0.333	0.333	0.333	0.333	0.333	0.333	0.333	0.333	0.333	6.327	1.5233	3.304	3	139	0.580538236177291	0	1
"140"	3	66	2	-1	-1	0	13	-1	1	3.814	0.4076	2.3311	-6.7479	6.4714	-8.4641	-8.8755	-0.6875	2.6403	-6.3406	8.6801	-0.4168	1.4945	1.0656	-5.2208	-2.4719	-2.0322	4.6569	-1.7353	-7.808	1.3688	0.3165	0.2145	0.3618	0.2033	0.2869	0.2496	0.2033	0.3794	0.2768	0.325	0.4633	0.5231	0.2399	0.4062	0.5093	0.3169	0.3954	0.446	0.2181	6.3353	1.4994	5.3315	3	140	1.33867850717823	0	1
"141"	3	51	3	-2	-2	0	6	-1	1	1.815	-2.6763	-9.5407	-0.1959	5.6296	-10.9858	-10.8398	1.8721	4.8171	-3.8401	-0.8874	0.5262	4.1769	-1.2019	-2.7377	-2.2574	-3.5505	5.2474	-4.0316	-2.9143	-7.7097	0.2686	0.3874	0.3185	0.3739	0.3187	0.2159	0.3155	0.2382	0.4615	0.2496	0.4905	0.2826	0.2345	0.3989	0.3023	0.4289	0.456	0.3215	0.2625	6.3254	1.5772	3.3987	3	141	0.596085467716814	0	1
"142"	3	61	3	1	1	1	7	1	1	2.063	5.0646	-0.1018	3.8065	4.7401	6.7388	0.1447	-1.7694	-5.5449	12.43	1.4265	-3.7003	4.2703	-0.9342	6.9595	-3.0435	-9.1449	-4.3741	0.1767	-1.3017	3.2405	0.333	0.333	0.333	0.333	0.333	0.333	0.333	0.333	0.333	0.333	0.333	0.333	0.333	0.333	0.333	0.333	0.333	0.333	0.333	6.327	1.4726	3.5472	3	142	0.724161234089115	1	0
"143"	3	15	3	-4	-4	1	3	-1	1	0.917	-4.6658	-7.7368	-9.8632	-1.4108	3.4898	1.3093	-0.7138	-9.3592	-2.1328	-2.1572	-5.9865	3.5037	-8.9247	-7.9956	-6.117	-5.043	-15.3374	1.6069	1.5784	-4.4931	0.333	0.333	0.333	0.333	0.333	0.333	0.333	0.333	0.333	0.333	0.333	0.333	0.333	0.333	0.333	0.333	0.333	0.333	0.333	6.327	1.7142	2.6344	3	143	-0.0866478067256722	0	1
"144"	3	58	3	-2	-2	1	10	-1	1	3.292	-3.3415	-2.8048	1.7825	-4.6138	6.0756	3.9716	0.3153	-8.1335	-4.2743	-7.3404	2.6008	3.0552	-3.0779	-0.6021	-9.8772	-1.8644	-6.3061	-9.0292	-4.2882	7.9566	0.333	0.333	0.333	0.333	0.333	0.333	0.333	0.333	0.333	0.333	0.333	0.333	0.333	0.333	0.333	0.333	0.333	0.333	0.333	6.327	1.6699	4.9757	3	144	1.19149528281482	0	1
"145"	3	31	3	-1	-1	1	4	-1	1	1.027	-4.9818	-4.9262	5.8904	-4.859	3.7835	-7.1688	2.8682	2.0942	-3.2331	-9.6036	5.4898	4.2959	-5.2608	-3.5441	-0.4749	-5.85	4.9468	-0.4446	5.7667	-4.3402	0.333	0.333	0.333	0.333	0.333	0.333	0.333	0.333	0.333	0.333	0.333	0.333	0.333	0.333	0.333	0.333	0.333	0.333	0.333	6.327	1.4646	2.494	3	145	0.0266419309464211	0	1
"146"	3	14	3	4	4	0	4	1	1	1.077	6.703	3.1829	14.3337	-3.0136	1.6126	7.1906	-4.5265	11.7892	1.6706	2.5192	4.3441	6.3046	-3.5929	2.6256	4.2178	-2.7507	4.5586	4.4524	6.1958	11.1057	0.3427	0.216	0.3389	0.4967	0.2389	0.5015	0.3724	0.2596	0.3863	0.4478	0.3716	0.2531	0.2838	0.2203	0.4076	0.226	0.3598	0.2746	0.3303	6.3278	1.4291	2.5106	3	146	0.0741793981742515	1	0
"147"	3	70	3	4	4	0	3	1	1	0.698	8.9587	8.9889	7.3865	7.9426	4.0849	-0.106	4.6308	0.5955	0.312	2.2855	-1.0325	11.5504	12.6701	-0.4731	0.9362	-1.8224	7.9666	10.6127	-3.0457	-1.2047	0.2448	0.2143	0.3194	0.2557	0.4909	0.2273	0.4461	0.3869	0.235	0.5215	0.4232	0.316	0.2072	0.2675	0.3928	0.3482	0.231	0.271	0.5264	6.3251	1.7239	2.4319	3	147	-0.359536176219765	1	0
"148"	3	24	3	-1	-1	0	3	-1	1	0.717	3.5273	-8.6084	-4.4238	-3.3045	0.4417	0.7589	2.4281	3.3697	-8.3288	0.5143	-0.3311	3.057	-12.8965	-0.3484	5.0445	6.9565	-3.7547	-3.6185	1.3003	-1.2286	0.2151	0.377	0.3445	0.2518	0.3648	0.4181	0.2412	0.4103	0.4544	0.274	0.411	0.26	0.497	0.324	0.233	0.3303	0.4651	0.2621	0.2001	6.3337	1.5218	2.2342	3	148	-0.332679438382517	0	1
"149"	3	19	3	1	1	1	4	1	1	1.256	-2.33	0.687	10.4066	5.2728	3.5	5.6519	-1.8922	-2.5233	9.1326	0.0916	-0.2141	-9.2232	3.5391	-1.4738	3.4627	-5.3518	-5.108	5.5821	-2.3401	2.5853	0.333	0.333	0.333	0.333	0.333	0.333	0.333	0.333	0.333	0.333	0.333	0.333	0.333	0.333	0.333	0.333	0.333	0.333	0.333	6.327	1.5197	2.7736	3	149	0.227932068046007	1	0
"150"	3	21	3	4	4	1	4	1	1	1.141	2.9604	-1.0783	9.4167	-1.3374	0.2238	-1.9277	10.1968	3.6565	1.6568	7.4356	9.0596	10.6104	12.2239	-1.2507	-2.2277	1.966	2.3758	-1.584	5.9797	11.5477	0.333	0.333	0.333	0.333	0.333	0.333	0.333	0.333	0.333	0.333	0.333	0.333	0.333	0.333	0.333	0.333	0.333	0.333	0.333	6.327	1.538	2.6752	3	150	0.131905070879939	1	0
"151"	3	50	3	-4	-4	0	3	-1	1	0.526	-5.7958	0.2764	-4.4396	2.6331	-5.8131	3.2847	-1.9882	2.8664	-4.4592	-13.1574	-4.1634	-6.8661	-16.8161	-4.0402	-1.296	-7.4357	-3.309	0.442	-2.4565	-7.4696	0.2161	0.2855	0.4351	0.3415	0.4217	0.2265	0.4272	0.2605	0.212	0.4644	0.2858	0.4823	0.52	0.2806	0.2496	0.409	0.2562	0.2915	0.2582	6.3238	1.5751	2.093	3	151	-0.642454066244427	0	1
"152"	3	8	3	-4	-4	0	4	-1	1	0.841	-5.5674	-7.5529	2.3405	2.4612	-6.0062	-15.1254	-9.4862	-4.1842	-3.6899	-3.2444	-5.0755	-5.579	-5.9758	-5.4065	-4.7867	-3.2318	-6.0793	8.9876	1.0098	-4.1874	0.2717	0.2221	0.2651	0.3279	0.4222	0.2647	0.2299	0.4236	0.3948	0.288	0.3698	0.4068	0.314	0.2622	0.4953	0.2766	0.4278	0.2697	0.3896	6.3218	1.497	2.3579	3	152	-0.173163619009189	0	1
"153"	3	33	3	1	1	1	3	1	1	0.806	0.818	6.4713	4.523	-3.2987	4.4239	6.175	3.5389	0.4056	-6.1274	-2.8379	5.1897	7.3449	3.5105	4.6888	1.6761	-4.0942	-1.3249	3.4107	-11.2399	-3.9937	0.333	0.333	0.333	0.333	0.333	0.333	0.333	0.333	0.333	0.333	0.333	0.333	0.333	0.333	0.333	0.333	0.333	0.333	0.333	6.327	1.6992	2.5232	3	153	-0.215671536475509	1	0
"154"	3	16	3	-2	-2	1	2	-1	1	0.632	-3.1482	-4.3964	-12.0593	2.8767	-0.1984	2.8587	-4.5387	-4.515	-0.0219	-2.7105	-0.1648	4.0718	-9.2488	2.7764	2.412	0.5176	-7.6419	-2.7921	-10.4	5.104	0.333	0.333	0.333	0.333	0.333	0.333	0.333	0.333	0.333	0.333	0.333	0.333	0.333	0.333	0.333	0.333	0.333	0.333	0.333	6.327	1.4477	2.099	3	154	-0.45886588483528	0	1
"155"	3	20	3	2	2	1	3	1	1	0.839	-1.0656	7.9877	9.2078	2.7788	-5.6201	11.6679	-6.672	0.6602	-0.3359	-5.2142	5.7748	9.1735	1.1491	-0.2794	1.5277	2.6034	2.0568	-0.2675	-0.9749	6.0306	0.333	0.333	0.333	0.333	0.333	0.333	0.333	0.333	0.333	0.333	0.333	0.333	0.333	0.333	0.333	0.333	0.333	0.333	0.333	6.327	1.7255	2.5735	3	155	-0.175544572514931	1	0
"156"	3	48	3	2	2	1	3	1	1	0.908	4.5371	-1.4435	8.8712	-0.1879	7.3073	-9.3987	1.3912	1.257	3.3075	-4.1495	2.5607	1.0187	-3.7235	5.9507	4.8918	2.6711	8.1408	10.8634	-2.0599	-2.5168	0.333	0.333	0.333	0.333	0.333	0.333	0.333	0.333	0.333	0.333	0.333	0.333	0.333	0.333	0.333	0.333	0.333	0.333	0.333	6.327	1.522	2.4419	3	156	-0.0965109003808437	1	0
"157"	3	43	3	-4	-4	1	2	-1	1	0.631	-3.4556	-5.1201	-3.3589	-8.9837	-2.1202	-1.1941	-11.2205	-0.6886	-7.9193	-5.4792	3.1712	-10.2756	7.8887	-10.6977	-8.491	-0.7981	-6.4249	-2.7621	-2.779	1.8776	0.333	0.333	0.333	0.333	0.333	0.333	0.333	0.333	0.333	0.333	0.333	0.333	0.333	0.333	0.333	0.333	0.333	0.333	0.333	6.327	1.4735	2.1155	3	157	-0.460449416440924	0	1
"158"	3	6	3	2	2	1	5	-1	0	1.626	-1.4406	0.7561	7.1213	2.7783	-4.2535	6.2626	0.3704	-2.1313	13.1574	-0.4499	-6.7832	3.7601	-0.7485	-5.3317	5.3934	-0.7325	3.1984	8.9956	2.7512	6.7808	0.333	0.333	0.333	0.333	0.333	0.333	0.333	0.333	0.333	0.333	0.333	0.333	0.333	0.333	0.333	0.333	0.333	0.333	0.333	6.327	1.6249	3.2602	3	158	0.486123011125619	0	1
"159"	3	12	3	1	1	0	6	-1	0	1.669	-1.6275	0.9767	0.6437	-5.4878	-0.3225	-3.6891	4.4482	8.9885	-1.3881	-6.0933	7.1017	4.2724	3.3513	-1.0158	-6.1513	2.5168	1.0528	11.3454	4.2177	-4.4772	0.3507	0.4555	0.2192	0.2516	0.2082	0.491	0.2552	0.4878	0.2927	0.4949	0.2033	0.2493	0.3288	0.4177	0.5008	0.3807	0.303	0.2304	0.2029	6.3238	1.7032	3.3863	3	159	0.512224644679698	0	1
"160"	3	22	3	-4	-4	0	4	-1	1	0.999	-3.2471	-11.6788	2.5616	-3.6055	2.3318	-4.1706	-2.124	-0.6849	-7.0448	-7.0844	-4.9278	-2.0205	-1.3961	-9.841	-11.6235	-10.5681	-6.4505	1.4067	6.3998	-4.7591	0.3595	0.2988	0.229	0.3186	0.272	0.4858	0.2874	0.3376	0.2845	0.4314	0.4604	0.2094	0.4605	0.2159	0.4594	0.2362	0.3845	0.2445	0.3441	6.3193	1.5263	2.5326	3	160	-0.00100050033358353	0	1
"161"	3	45	3	-1	-1	1	2	1	0	0.642	2.9465	2.745	-1.3664	3.7141	-0.312	-4.0461	-3.8018	10.2624	-6.7775	-1.1046	-4.8723	-4.7541	1.1032	-3.4905	-11.3238	0.3957	1.8815	-8.3604	3.179	2.3641	0.333	0.333	0.333	0.333	0.333	0.333	0.333	0.333	0.333	0.333	0.333	0.333	0.333	0.333	0.333	0.333	0.333	0.333	0.333	6.327	1.4488	2.0928	3	161	-0.443166975292176	1	0
"162"	3	60	3	0	0	1	11	-1	1	3.529	-0.0794	2.4995	-0.8847	4.6485	-1.311	5.1559	1.0554	-1.575	-11.33	0.166	-4.9181	-5.7384	-1.9182	-4.3355	1.411	9.8989	-3.5449	-0.0756	8.3911	3.5674	0.333	0.333	0.333	0.333	0.333	0.333	0.333	0.333	0.333	0.333	0.333	0.333	0.333	0.333	0.333	0.333	0.333	0.333	0.333	6.327	1.4592	4.9962	3	162	1.26101454469313	0	1
"163"	3	41	3	2	2	0	8	1	1	2.133	3.7236	1.1367	4.4085	11.1557	8.1759	5.1252	2.4323	2.5854	-0.6412	9.4834	1.8476	-0.146	2.526	-4.4466	4.8203	-0.9671	-9.5197	-3.1233	-4.1827	6.8082	0.2048	0.3415	0.2305	0.397	0.2768	0.4206	0.2271	0.2988	0.3916	0.4343	0.3399	0.2022	0.2445	0.3082	0.4442	0.2954	0.5243	0.424	0.3208	6.3265	1.6497	3.7835	3	163	0.757529439489213	1	0
"164"	3	36	3	-4	-4	0	6	-1	1	1.997	-1.1272	-1.1209	-12.6279	-9.4512	-1.0007	-1.1575	2.9007	-10.517	-2.0447	-6.6103	-2.8983	-8.8727	-7.6691	-7.0428	-4.1396	-1.0418	-1.9063	-10.1485	5.4372	1.678	0.5296	0.3358	0.2282	0.2695	0.384	0.2589	0.3654	0.4889	0.2048	0.3797	0.3096	0.2675	0.3067	0.3391	0.3072	0.217	0.4157	0.2258	0.4955	6.3288	1.5245	3.531	3	164	0.691646054433678	0	1
"165"	3	2	3	-2	-2	1	5	-1	1	1.412	-6.9574	8.0389	-1.6267	-3.6136	-7.4209	-4.2581	-10.2941	1.2318	2.738	-0.7505	-6.3884	0.3146	0.6711	1.2415	3.1661	5.3103	-0.9166	-6.6393	-7.1004	-8.0109	0.333	0.333	0.333	0.333	0.333	0.333	0.333	0.333	0.333	0.333	0.333	0.333	0.333	0.333	0.333	0.333	0.333	0.333	0.333	6.327	1.4029	2.8125	3	165	0.34500713907105	0	1
"166"	3	9	3	-2	-2	0	6	-1	1	1.479	-6.9463	-4.815	-7.338	-0.0468	0.2732	-5.492	-5.0605	-5.633	1.7361	-11.1129	0.9859	4.095	0.3311	-8.0645	-0.2085	4.8102	8.7425	-2.8688	-0.0268	-3.9805	0.3742	0.2757	0.3475	0.2505	0.2123	0.4291	0.2914	0.3235	0.4499	0.2889	0.3596	0.424	0.2084	0.3015	0.359	0.3862	0.4806	0.2437	0.3195	6.3253	1.6683	3.1464	3	166	0.391366183728663	0	1
"167"	3	53	3	0	0	0	8	1	1	2.491	3.6804	1.8934	-1.1568	-3.6265	-11.3358	1.8656	0.9744	-1.2173	3.0747	5.3679	-4.4531	0.9064	-3.3376	0.0679	7.3685	-5.738	10.2513	-5.117	1.947	-2.8152	0.2047	0.345	0.4808	0.2333	0.2017	0.4727	0.5183	0.2649	0.237	0.3173	0.2834	0.49	0.2621	0.3095	0.2094	0.2543	0.338	0.4034	0.4969	6.323	1.4483	3.9585	3	167	0.912684236280043	1	0
"168"	3	47	3	1	1	1	9	1	1	2.968	-1.0526	4.9979	-6.3788	-4.7129	-4.2367	2.997	-4.2544	2.3216	10.8101	-0.3628	-0.7519	4.0882	-3.3136	9.0842	0.2233	1.9231	9.732	-2.6125	5.915	-2.5941	0.333	0.333	0.333	0.333	0.333	0.333	0.333	0.333	0.333	0.333	0.333	0.333	0.333	0.333	0.333	0.333	0.333	0.333	0.333	6.327	1.694	4.6691	3	168	1.08788832530513	1	0
"169"	3	30	3	-2	-2	1	11	1	0	3.602	0.7107	-5.7536	-1.9791	-9.1548	-3.2186	-4.5033	8.6186	1.403	-6.779	2.4418	-6.7666	0.1066	-0.3975	-3.1065	-5.9423	-2.7389	-3.715	-1.0194	-8.7291	9.781	0.333	0.333	0.333	0.333	0.333	0.333	0.333	0.333	0.333	0.333	0.333	0.333	0.333	0.333	0.333	0.333	0.333	0.333	0.333	6.327	1.6431	5.2528	3	169	1.28148924675376	1	0
"170"	3	38	3	-1	-1	0	3	-1	1	1.01	-0.3928	-7.2658	-2.123	-3.0066	3.5661	-10.8409	-4.3301	4.9355	3.2376	1.2142	-3.5986	0.2543	-0.2349	-3.0296	7.1929	-0.6486	-11.4963	0.9178	5.1183	1.9524	0.3264	0.2947	0.4221	0.255	0.345	0.2956	0.2231	0.2494	0.4174	0.4639	0.3318	0.2413	0.3914	0.297	0.3977	0.2666	0.2978	0.344	0.4589	6.319	1.4405	2.461	3	170	0.00995033085316809	0	1
"171"	3	28	3	4	4	0	5	1	1	1.119	3.5268	-1.8091	3.1582	13.6317	-1.0914	2.0994	5.8094	-4.4898	1.6262	8.8558	7.3635	8.2859	5.4729	12.1438	10.8399	-0.6049	1.0544	1.7533	-2.7077	4.8227	0.2863	0.2611	0.3352	0.2309	0.2834	0.5206	0.203	0.421	0.5247	0.2625	0.4345	0.3072	0.3612	0.275	0.2108	0.4247	0.5154	0.2087	0.2586	6.3247	1.5151	2.6535	3	171	0.112435429329788	1	0
"172"	3	32	3	0	0	1	16	-1	1	5.117	4.8629	5.0722	4.2744	-1.0442	-2.1139	1.2455	-0.3018	1.7137	-5.0543	-2.471	-1.3673	1.5094	4.3195	-11.6421	9.7003	-8.5756	4.2197	-1.4527	1.7937	-4.2819	0.333	0.333	0.333	0.333	0.333	0.333	0.333	0.333	0.333	0.333	0.333	0.333	0.333	0.333	0.333	0.333	0.333	0.333	0.333	6.327	1.4488	6.5677	3	172	1.63256832982295	0	1
"173"	3	52	3	-1	-1	0	7	-1	1	2.071	-0.0149	0.9348	6.3936	-5.2781	-10.1352	-3.2754	1.225	-10.05	-2.1665	-7.9909	-1.8794	-1.4591	-3.3962	4.0878	5.5147	6.4921	1.308	-3.6624	4.9339	-3.3984	0.3797	0.2128	0.3968	0.3046	0.4385	0.3245	0.3892	0.4904	0.2694	0.2094	0.3209	0.4173	0.2085	0.4002	0.2883	0.4875	0.2059	0.2659	0.3258	6.3355	1.5164	3.5881	3	173	0.728031582413447	0	1
"174"	3	13	3	2	2	0	9	1	1	2.779	3.4485	-9.4332	4.612	1.1641	-2.1534	10.8383	-0.9306	0.0661	4.738	0.8426	1.0073	0.3734	-1.3144	3.7507	4.3395	1.9533	14.1061	-1.5933	-0.0882	5.8802	0.2303	0.3653	0.5213	0.2233	0.3432	0.4106	0.2532	0.2262	0.4471	0.3033	0.3924	0.2341	0.408	0.3503	0.3214	0.2102	0.3804	0.2376	0.4674	6.3256	1.5477	4.3301	3	174	1.02209115076037	1	0
"175"	3	29	3	-4	-4	1	5	-1	1	1.569	-4.0066	2.7902	4.2191	-19.0899	-4.7935	-7.9341	-7.6581	-4.1218	-7.2595	-7.8784	-1.972	-3.8079	-2.0839	-0.799	-7.3712	-6.8152	-1.0426	1.6095	0.3901	-3.0997	0.333	0.333	0.333	0.333	0.333	0.333	0.333	0.333	0.333	0.333	0.333	0.333	0.333	0.333	0.333	0.333	0.333	0.333	0.333	6.327	1.4101	2.9859	3	175	0.450438473750896	0	1
"176"	3	1	3	-4	-4	1	3	-1	1	0.89	-5.8611	-8.7819	-3.473	-6.632	-6.4149	0.9431	-3.3293	5.4751	0.299	-4.2971	-1.7125	-12.511	-1.3142	1.152	-4.9793	-13.1305	-7.8178	4.3918	-4.7578	-6.831	0.333	0.333	0.333	0.333	0.333	0.333	0.333	0.333	0.333	0.333	0.333	0.333	0.333	0.333	0.333	0.333	0.333	0.333	0.333	6.327	1.7266	2.6236	3	176	-0.116533816255952	0	1
"177"	3	39	3	0	0	0	8	-1	1	2.707	-3.6517	2.8196	0.2897	4.5653	-6.054	-0.9523	1.4781	-3.5776	-0.4937	-0.5179	0.4282	-5.0818	2.7631	-4.9043	1.401	-1.1498	8.618	12.2144	0.0652	-9.9398	0.3347	0.5133	0.3751	0.2414	0.4132	0.4442	0.222	0.2508	0.206	0.2967	0.2262	0.2592	0.3047	0.359	0.43	0.463	0.2538	0.2932	0.4322	6.3187	1.5748	4.2915	3	177	0.995841010632164	0	1
"178"	3	54	3	1	1	0	6	-1	0	1.962	4.1327	-3.8223	4.7809	-4.6938	-6.1644	1.4933	-6.156	3.6548	2.4918	-0.7004	-3.3146	-0.4663	-4.053	12.0511	-2.7389	5.3571	8.0924	0.7904	2.0455	6.2811	0.3197	0.5093	0.2618	0.4875	0.2895	0.2639	0.4512	0.3091	0.2837	0.4752	0.3208	0.2069	0.4433	0.2301	0.4193	0.2413	0.3123	0.2823	0.2121	6.3192	1.6978	3.6626	3	178	0.673964361143171	0	1
"179"	3	59	3	-1	-1	1	12	-1	1	3.995	-1.4053	3.8499	-2.8204	-1.2514	-11.2951	-1.0768	9.3401	5.5121	-0.9866	2.9562	-5.515	5.5501	-4.9913	-4.5447	-7.2071	2.4544	-6.4824	-1.4341	3.2083	-2.7937	0.333	0.333	0.333	0.333	0.333	0.333	0.333	0.333	0.333	0.333	0.333	0.333	0.333	0.333	0.333	0.333	0.333	0.333	0.333	6.327	1.42	5.4288	3	179	1.38504357921824	0	1
"180"	3	40	3	1	1	0	7	1	1	2.119	5.0214	-1.6475	0.3386	5.6669	8.419	0.5797	5.0369	4.6142	8.1125	-3.9197	-10.1009	7.0893	-1.6728	1.3	-1.8859	-8.5868	0.3105	0.4629	2.4	-3.0866	0.5014	0.3868	0.2323	0.3064	0.3539	0.2288	0.4212	0.2445	0.5244	0.2495	0.3209	0.2102	0.4856	0.2564	0.5206	0.2054	0.2751	0.3391	0.2665	6.329	1.5744	3.7036	3	180	0.750944279286162	1	0
"181"	3	69	3	2	2	0	13	1	1	4.287	2.0373	10.4996	3.9661	-1.8789	0.7353	-1.9233	1.3679	7.2363	-6.2315	2.6972	10.292	-9.3284	5.7981	2.0858	0.852	-1.3677	-0.4963	1.4501	8.1882	2.1912	0.2093	0.2795	0.4921	0.2187	0.3268	0.267	0.399	0.5175	0.3571	0.388	0.2755	0.4829	0.2089	0.2646	0.222	0.4725	0.4051	0.2079	0.3393	6.334	1.556	5.8544	3	181	1.45558718761584	1	0
"182"	3	35	3	4	4	1	4	1	1	1.324	5.895	1.9461	9.1174	8.7507	12.078	9.5839	-5.1497	2.784	-4.9166	3.9111	4.8653	6.2495	2.2271	7.8252	6.448	-5.685	6.1296	5.47	-2.2791	5.0972	0.333	0.333	0.333	0.333	0.333	0.333	0.333	0.333	0.333	0.333	0.333	0.333	0.333	0.333	0.333	0.333	0.333	0.333	0.333	6.327	1.4013	2.7408	3	182	0.280657457514817	1	0
"183"	3	66	3	-1	-1	0	3	-1	1	1.052	-3.6605	-5.6493	3.1568	5.8786	-5.8052	2.4395	-5.2371	-3.6959	-8.6626	6.5168	4.1511	-4.3442	5.5796	-3.9702	-7.8283	0.8805	-3.8747	6.107	-1.2535	-0.4844	0.3654	0.4745	0.2402	0.3392	0.4144	0.2147	0.2458	0.286	0.4175	0.3481	0.2611	0.3249	0.2181	0.253	0.4078	0.5099	0.2128	0.5014	0.293	6.3278	1.637	2.703	3	183	0.0506931143155182	0	1
"184"	3	42	3	4	4	0	5	1	1	1.199	0.3209	8.8556	4.2085	-0.56	-1.1677	-1.1041	1.9257	5.974	-1.5577	-0.9402	11.0493	12.7052	7.2652	0.9156	11.8305	6.9455	5.4175	5.4084	7.4422	-3.3685	0.3683	0.3038	0.217	0.2461	0.3627	0.3104	0.268	0.3951	0.5207	0.3769	0.2448	0.4014	0.2385	0.3656	0.2063	0.2824	0.4873	0.2685	0.4631	6.327	1.5871	2.8001	3	184	0.181487876045377	1	0
"185"	3	46	3	0	0	1	5	-1	1	1.387	0.0299	0.1392	-2.3986	-5.9244	3.168	-7.2872	-1.9797	-1.0858	-9.0259	3.9967	1.3213	-0.4759	8.5598	4.1872	5.5604	-1.7488	-7.8337	2.6572	9.5832	-0.6765	0.333	0.333	0.333	0.333	0.333	0.333	0.333	0.333	0.333	0.333	0.333	0.333	0.333	0.333	0.333	0.333	0.333	0.333	0.333	6.327	1.4596	2.8544	3	185	0.327143141332695	0	1
"186"	3	49	3	4	4	1	6	1	1	1.72	-0.3603	-0.5565	11.1713	5.2203	4.0378	-1.5164	-8.7657	-1.2015	4.4361	8.334	7.2375	4.4549	-0.1054	8.1975	2.071	4.4188	8.1088	4.7266	12.0665	7.7018	0.333	0.333	0.333	0.333	0.333	0.333	0.333	0.333	0.333	0.333	0.333	0.333	0.333	0.333	0.333	0.333	0.333	0.333	0.333	6.327	1.5273	3.2541	3	186	0.542324290825362	1	0
"187"	3	7	3	4	4	1	6	1	1	1.864	2.4552	3.7896	-1.4433	7.8933	-2.8538	12.5266	-1.3124	1.3092	-2.5092	2.9507	4.0067	1.3574	10.0519	5.1047	-1.2293	4.9181	10.4791	-0.8566	10.0829	12.3487	0.333	0.333	0.333	0.333	0.333	0.333	0.333	0.333	0.333	0.333	0.333	0.333	0.333	0.333	0.333	0.333	0.333	0.333	0.333	6.327	1.6563	3.5311	3	187	0.6227247162634	1	0
"188"	3	5	3	1	1	1	4	-1	0	1.062	-2.6599	3.1212	-4.7851	3.6744	-4.5613	4.2399	-1.705	-1.2871	-5.8014	1.6093	2.3168	4.252	3.4398	3.68	-7.3319	0.1692	-4.1156	11.6019	5.0562	8.4033	0.333	0.333	0.333	0.333	0.333	0.333	0.333	0.333	0.333	0.333	0.333	0.333	0.333	0.333	0.333	0.333	0.333	0.333	0.333	6.327	1.5093	2.5791	3	188	0.0601539228197471	0	1
"189"	3	57	3	-4	-4	1	3	-1	1	0.954	-8.0201	-6.4974	1.736	-4.828	-6.773	-2.9413	-3.2515	-9.7201	-5.6295	-9.5916	4.4741	3.7644	-12.1207	-5.4255	7.1157	-4.6153	-8.9274	-1.9924	-4.8319	-3.3683	0.333	0.333	0.333	0.333	0.333	0.333	0.333	0.333	0.333	0.333	0.333	0.333	0.333	0.333	0.333	0.333	0.333	0.333	0.333	6.327	1.6352	2.5885	3	189	-0.0470916075338506	0	1
"190"	3	25	3	0	0	0	5	1	0	1.257	2.1601	7.6522	4.2419	-3.4138	5.6176	7.0303	-10.5193	-5.805	-1.7865	1.3753	6.4813	4.8062	0.571	-7.9096	-3.8997	-0.8336	-0.4187	2.0297	-4.3173	-1.5189	0.2235	0.2848	0.2585	0.2268	0.2804	0.3293	0.26	0.3272	0.3562	0.2581	0.5078	0.2839	0.335	0.3868	0.4799	0.3102	0.4966	0.3489	0.375	6.3289	1.5468	2.8079	3	190	0.22872792960811	1	0
"191"	3	37	3	-2	-2	0	6	-1	1	1.813	1.1627	4.6181	-3.442	-7.001	-1.7786	9.9532	0.0593	-2.3675	-4.4528	-4.2479	-9.7908	-1.507	-3.5927	1.714	2.5341	-8.1426	-3.6469	-2.8618	-9.5844	3.6841	0.2337	0.4354	0.3749	0.2742	0.4789	0.2754	0.2431	0.3318	0.2979	0.4269	0.2823	0.4618	0.2387	0.4276	0.2863	0.4338	0.2209	0.2723	0.3372	6.3332	1.6489	3.4643	3	191	0.594982931772714	0	1
"192"	3	56	3	4	4	0	4	1	1	1.228	1.8938	8.8776	6.5306	7.833	6.1235	-1.6265	0.4597	2.9877	12.8739	-3.5373	10.2612	8.5509	7.8523	7.541	0.5548	-4.9343	4.5741	-1.528	4.4918	0.0098	0.2698	0.2219	0.3539	0.4807	0.5266	0.2496	0.3601	0.4705	0.2775	0.4816	0.3407	0.4072	0.2599	0.2043	0.3748	0.3021	0.2093	0.3387	0.204	6.3331	1.4707	2.7122	3	192	0.205386829724951	1	0
"193"	3	68	3	1	1	0	6	1	1	2.071	-1.8541	1.084	4.9058	-2.6181	13.7771	7.7438	0.4745	6.1502	-0.59	-6.0335	-2.8157	1.0402	1.3369	-4.2022	-2.6417	-0.5855	7.5599	-0.4826	3.9939	-5.4515	0.4218	0.3673	0.2104	0.3743	0.531	0.208	0.2471	0.4905	0.3278	0.2947	0.2446	0.3021	0.3799	0.505	0.3225	0.2527	0.3163	0.2344	0.2896	6.32	1.6677	3.7555	3	193	0.728031582413447	1	0
"194"	3	18	3	0	0	1	3	-1	1	0.96	0.8608	-6.873	8.9683	9.0387	-2.2694	-5.3776	-6.1313	0.6828	-3.1169	0.872	3.0142	4.5257	5.0351	0.1085	-6.2851	6.5443	-4.21	-2.5322	-1.2072	-1.5573	0.333	0.333	0.333	0.333	0.333	0.333	0.333	0.333	0.333	0.333	0.333	0.333	0.333	0.333	0.333	0.333	0.333	0.333	0.333	6.327	1.5351	2.511	3	194	-0.0408219945202552	0	1
"195"	3	55	3	2	2	0	13	1	1	4.287	2.6735	-3.645	5.4851	2.3301	-3.586	-3.7654	-4.5845	1.7268	5.2847	6.0904	6.0086	4.7069	6.1329	-6.9011	0.0569	11.6303	0.7647	-3.8009	5.8302	6.8437	0.3599	0.4143	0.346	0.2182	0.3067	0.4622	0.4139	0.3803	0.3461	0.2072	0.3165	0.3851	0.2691	0.2027	0.4655	0.2209	0.5238	0.225	0.2634	6.3266	1.7326	6.038	3	195	1.45558718761584	1	0
"196"	3	17	3	-1	-1	1	3	-1	1	0.965	-2.9057	-5.9059	1.9198	-4.0386	-0.7577	14.4441	5.1214	-4.327	-0.1029	-0.6977	0.3881	-5.241	0.8738	-5.0783	-4.4232	-1.7545	-8.0067	-5.3184	2.3568	4.2164	0.333	0.333	0.333	0.333	0.333	0.333	0.333	0.333	0.333	0.333	0.333	0.333	0.333	0.333	0.333	0.333	0.333	0.333	0.333	6.327	1.5577	2.5323	3	196	-0.0356271776431512	0	1
"197"	3	67	3	0	0	0	4	1	1	1.386	4.5197	2.6476	6.1782	2.8282	0.2406	-2.8425	-2.6057	-2.2496	7.3582	-1.1036	-2.3305	4.912	-3.573	-2.949	2.0862	6.2716	-3.9202	1.8012	-14.7715	-0.7163	0.4199	0.3081	0.4654	0.5083	0.2653	0.5257	0.2412	0.3428	0.2577	0.2846	0.3204	0.227	0.428	0.3806	0.2018	0.3057	0.239	0.3498	0.2642	6.3355	1.7007	3.1035	3	197	0.326421900767711	1	0
"198"	3	4	3	0	0	1	3	-1	0	0.763	-4.9327	5.6102	-4.7565	5.5074	-8.2792	4.6822	-1.3079	2.932	-1.2665	13.0708	1.4214	-7.5405	-3.2669	0.4845	2.1314	1.0652	-0.9618	-0.0446	0.0473	-3.4845	0.333	0.333	0.333	0.333	0.333	0.333	0.333	0.333	0.333	0.333	0.333	0.333	0.333	0.333	0.333	0.333	0.333	0.333	0.333	6.327	1.4727	2.2467	3	198	-0.27049724769768	0	1
"199"	3	10	3	-1	-1	0	9	-1	1	2.912	-5.5753	4.3433	1.029	1.6904	-6.9853	-1.9426	-7.977	3.249	1.9188	-8.5708	-5.706	0.3233	-5.8186	6.1083	-0.2484	1.1924	8.3225	-6.5962	-1.6548	2.5008	0.2368	0.4984	0.2491	0.4546	0.3439	0.305	0.2763	0.2195	0.4492	0.2043	0.3018	0.4225	0.2189	0.2461	0.4884	0.3216	0.3589	0.5132	0.2155	6.324	1.4933	4.4125	3	199	1.06884013033444	0	1
"200"	3	62	3	2	2	1	5	-1	0	1.365	1.1643	0.7416	-5.6646	-1.9943	5.0565	-4.2776	-1.1575	2.46	5.437	2.5835	6.4192	8.8709	2.849	-2.174	-6.9661	2.5417	3.5978	13.1402	-1.3401	8.4816	0.333	0.333	0.333	0.333	0.333	0.333	0.333	0.333	0.333	0.333	0.333	0.333	0.333	0.333	0.333	0.333	0.333	0.333	0.333	6.327	1.4227	2.7987	3	200	0.311154428636923	0	1
"201"	3	23	3	-2	-2	0	8	-1	1	2.415	0.1195	-6.3368	9.652	-6.4502	-1.8866	0.9022	-12.6446	4.7842	1.4246	-0.978	-5.3909	0.8737	0.1607	-1.6756	3.0766	-3.7117	-4.4047	-6.4881	-6.7514	-5.6855	0.2249	0.2862	0.2292	0.3709	0.3183	0.4718	0.31	0.4329	0.3618	0.226	0.326	0.4356	0.4712	0.2715	0.3956	0.2749	0.3045	0.3427	0.2686	6.3227	1.5925	4.0161	3	201	0.881699287104536	0	1
"202"	3	44	3	-2	-2	1	9	-1	1	2.915	0.9965	2.6046	-0.5152	7.132	-4.1681	2.5379	-0.2291	-8.1324	-8.6755	-0.2406	-9.8975	5.5868	-1.975	-4.7362	-3.6982	3.5708	-1.8112	-8.4211	-0.5558	-8.6284	0.333	0.333	0.333	0.333	0.333	0.333	0.333	0.333	0.333	0.333	0.333	0.333	0.333	0.333	0.333	0.333	0.333	0.333	0.333	6.327	1.4934	4.4153	3	202	1.06986981980246	0	1
"203"	3	63	3	4	4	1	7	1	1	2.271	2.5509	8.8824	-2.4664	0.4474	0.8191	5.1161	4.2851	3.176	9.7352	14.2194	6.6397	9.7708	-0.9199	-1.55	5.8399	8.2976	2.5234	5.9242	2.1534	-6.0024	0.333	0.333	0.333	0.333	0.333	0.333	0.333	0.333	0.333	0.333	0.333	0.333	0.333	0.333	0.333	0.333	0.333	0.333	0.333	6.327	1.6584	3.9381	3	203	0.820220263123421	1	0
"204"	3	27	3	2	2	0	19	1	1	6.293	0.7492	-0.5781	-0.8247	2.8198	1.5184	-4.6896	-7.189	6.0906	-2.3719	6.3107	10.3296	9.7358	-2.2119	1.4817	-6.1789	3.3148	4.3187	8.1541	4.8093	3.1502	0.3706	0.2497	0.5242	0.2879	0.3707	0.3434	0.2022	0.2505	0.2989	0.2217	0.2916	0.2501	0.2848	0.4767	0.2843	0.4976	0.3394	0.2602	0.5286	6.3331	1.6371	7.9276	3	204	1.8394379045448	1	0
"205"	3	11	3	0	0	0	5	-1	0	1.817	0.5853	-0.1615	-6.441	-2.2012	0.052	-2.8099	3.3094	2.9193	-11.3931	-3.3536	-1.9784	0.3385	9.7158	-0.6657	8.4086	-2.9941	3.4933	7.453	-0.2274	-4.4056	0.2754	0.4925	0.3165	0.2353	0.505	0.3194	0.2567	0.3186	0.382	0.2902	0.3195	0.424	0.4492	0.267	0.3061	0.2585	0.3587	0.2987	0.2524	6.3257	1.4694	3.3013	3	205	0.597186789414034	0	1
"206"	3	64	3	-4	-4	0	4	-1	1	1.103	-0.5602	-9.2414	-11.3459	-6.4473	5.8076	0.7202	3.5942	-6.7461	-4.645	0.9922	-2.3306	-1.8669	1.0904	-7.3888	-8.4166	-0.13	-9.5004	-5.0731	-5.0169	-12.2757	0.2921	0.2548	0.4122	0.3293	0.2279	0.3521	0.4986	0.2193	0.3686	0.3098	0.2075	0.325	0.5166	0.4271	0.2356	0.3328	0.5218	0.2595	0.2297	6.3205	1.523	2.6368	3	206	0.0980337402713654	0	1
"207"	3	34	3	2	2	1	4	1	1	1.198	-2.3139	3.8357	10.1982	-2.3326	9.8108	-2.6361	5.7596	7.3988	1.1771	4.7069	-1.5932	-1.3917	7.0365	0.608	-1.6454	-5.2429	10.038	-4.2791	1.6421	-2.2228	0.333	0.333	0.333	0.333	0.333	0.333	0.333	0.333	0.333	0.333	0.333	0.333	0.333	0.333	0.333	0.333	0.333	0.333	0.333	6.327	1.5476	2.7656	3	207	0.180653499693258	1	0
"208"	3	3	3	-1	-1	1	3	-1	1	0.951	-4.951	-2.7982	-1.9555	9.5995	4.3648	-7.3696	6.2844	1.3301	-1.8343	-10.1129	-5.1265	4.4443	-0.6517	-0.2692	-4.8671	-7.7233	-1.7947	2.2035	1.4834	1.387	0.333	0.333	0.333	0.333	0.333	0.333	0.333	0.333	0.333	0.333	0.333	0.333	0.333	0.333	0.333	0.333	0.333	0.333	0.333	6.327	1.5712	2.5356	3	208	-0.0502412164367468	0	1
"209"	3	65	3	-2	-2	0	4	1	0	1.267	2.2811	4.5512	3.9428	3.8271	0.5659	-11.3125	3.3749	-0.0519	-1.1931	-11.6751	-3.521	-4.0769	2.4705	-4.8416	-1.1693	-1.4029	0.0353	-7.2147	-3.6864	-9.2756	0.36	0.3152	0.3533	0.5225	0.2858	0.3953	0.282	0.3623	0.4324	0.2813	0.2184	0.2575	0.2014	0.3965	0.4672	0.2632	0.4097	0.2921	0.2249	6.3209	1.4139	2.684	3	209	0.236651901339002	1	0
"210"	3	26	3	1	1	0	11	1	1	3.564	0.613	-0.3521	10.9455	1.23	-0.1488	7.6184	2.0626	2.2146	-1.7201	6.607	-4.4401	3.4163	-0.0656	-8.0024	-10.0435	-3.4278	1.5718	1.0096	7.7289	1.4755	0.25	0.3704	0.2714	0.2093	0.4853	0.3643	0.4838	0.2138	0.3857	0.4206	0.3487	0.4169	0.3046	0.3491	0.3013	0.2568	0.3297	0.2583	0.3116	6.3316	1.4985	5.065	3	210	1.27088350960856	1	0
"211"	3	32	4	0	0	1	7	-1	0	2.264	4.7381	-2.4068	5.4607	-5.8505	-5.9646	-6.6547	-1.1685	-0.3086	-0.0627	-3.4656	6.3315	7.8546	-2.4973	8.4067	-3.4391	-6.9962	-4.4992	2.8692	1.792	3.9313	0.333	0.333	0.333	0.333	0.333	0.333	0.333	0.333	0.333	0.333	0.333	0.333	0.333	0.333	0.333	0.333	0.333	0.333	0.333	6.327	1.5139	3.7812	3	211	0.817133160340936	0	1
"212"	3	48	4	2	2	1	6	1	1	1.861	1.4125	7.8867	0.0633	-0.1021	6.505	-4.2262	0.7146	1.8202	1.8463	6.6275	12.5287	3.9546	1.3719	5.6153	-1.8871	-10.5062	0.1838	-2.4634	1.4608	5.9832	0.333	0.333	0.333	0.333	0.333	0.333	0.333	0.333	0.333	0.333	0.333	0.333	0.333	0.333	0.333	0.333	0.333	0.333	0.333	6.327	1.4511	3.3119	3	212	0.621113977660114	1	0
"213"	3	15	4	-4	-4	1	4	-1	1	1.277	-2.2874	-11.2423	-2.4305	-10.4375	-12.1634	2.1735	0.5802	-0.3154	5.3237	-8.2445	-2.7214	-2.9508	2.9255	-4.7215	-2.4526	-1.321	-2.0352	-10.8358	-8.2971	-8.5074	0.333	0.333	0.333	0.333	0.333	0.333	0.333	0.333	0.333	0.333	0.333	0.333	0.333	0.333	0.333	0.333	0.333	0.333	0.333	6.327	1.6669	2.9446	3	213	0.244513577050402	0	1
"214"	3	18	4	0	0	1	7	-1	0	2.037	4.0428	1.971	-2.9815	3.8396	-2.1894	-0.8198	-0.418	-7.7483	8.8563	9.8744	-4.0075	-3.8486	-0.6665	-8.9075	-4.154	2.0618	6.5757	-0.7162	1.3982	-1.8499	0.333	0.333	0.333	0.333	0.333	0.333	0.333	0.333	0.333	0.333	0.333	0.333	0.333	0.333	0.333	0.333	0.333	0.333	0.333	6.327	1.4003	3.4377	3	214	0.711478137244669	0	1
"215"	3	7	4	4	4	1	11	1	1	3.451	4.1522	4.2289	-7.1877	1.4572	3.2129	8.691	4.0771	1.5979	5.088	7.6028	9.8145	-4.4032	2.3286	0.6533	5.6661	10.5743	15.4237	4.4421	2.8902	0.3249	0.333	0.333	0.333	0.333	0.333	0.333	0.333	0.333	0.333	0.333	0.333	0.333	0.333	0.333	0.333	0.333	0.333	0.333	0.333	6.327	1.7038	5.1689	3	215	1.23866404411587	1	0
"216"	3	42	4	4	4	0	11	1	1	3.225	5.6834	7.4397	-3.6418	10.6972	0.1071	5.4978	6.347	0.7449	-0.0726	2.0607	12.293	6.1937	0.5655	10.5381	-0.9427	13.5561	0.129	-0.5067	-0.287	4.511	0.2463	0.2024	0.3366	0.2507	0.3187	0.2143	0.4344	0.2476	0.2156	0.4365	0.4818	0.2273	0.466	0.3739	0.4546	0.3744	0.4974	0.2476	0.3013	6.3274	1.6496	4.892	3	216	1.17093295024774	1	0
"217"	3	11	4	0	0	0	11	-1	0	3.238	-0.7774	-2.995	-0.442	-12.5423	2.4763	2.1207	0.1749	-2.904	6.7388	8.9546	-2.1483	1.7823	8.2413	0.8178	-3.2456	0.7568	-1.3024	-5.0382	-4.4308	5.2187	0.3084	0.2443	0.3506	0.2385	0.3518	0.4609	0.3789	0.2055	0.4538	0.24	0.3507	0.2705	0.3327	0.4988	0.3977	0.3311	0.2868	0.4023	0.2268	6.3302	1.4444	4.6883	3	217	1.17495585525544	0	1
"218"	3	21	4	4	4	1	10	1	1	3.288	7.5187	-4.3073	7.0951	13.0369	2.2093	8.7063	1.9022	5.4875	3.9355	7.496	12.2506	5.2462	1.5756	-6.3793	8.9782	-2.3869	2.5148	-0.7737	3.9229	2.6538	0.333	0.333	0.333	0.333	0.333	0.333	0.333	0.333	0.333	0.333	0.333	0.333	0.333	0.333	0.333	0.333	0.333	0.333	0.333	6.327	1.4387	4.7386	3	218	1.19027947719393	1	0
"219"	3	68	4	1	1	0	11	-1	0	3.521	0.7584	-0.1586	1.7379	9.1485	0.8767	2.9472	0.5127	5.2688	-0.485	-6.6769	2.1362	-8.9205	2.852	-0.6941	-0.0308	-1.1578	2.4318	-7.7453	8.5377	10.4622	0.3275	0.2321	0.2899	0.4836	0.2648	0.204	0.3838	0.4712	0.248	0.3984	0.288	0.3299	0.2878	0.2237	0.4792	0.4361	0.224	0.4614	0.2911	6.3245	1.6704	5.2054	3	219	1.25874504017292	0	1
"220"	3	35	4	4	4	1	6	1	1	1.787	6.9953	11.1409	13.9663	-3.4311	11.275	-2.4795	2.9884	-2.3231	7.1196	4.5793	-1.9774	1.4321	3.8524	6.011	0.8015	4.912	9.4822	-0.7171	2.2722	2.6223	0.333	0.333	0.333	0.333	0.333	0.333	0.333	0.333	0.333	0.333	0.333	0.333	0.333	0.333	0.333	0.333	0.333	0.333	0.333	6.327	1.5133	3.3048	3	220	0.580538236177291	1	0
"221"	3	59	4	-1	-1	1	12	-1	1	3.984	0.9391	3.0484	1.3772	1.6277	2.166	-2.1826	3.3485	5.3476	-2.6013	-5.5245	-6.6644	-12.8386	4.5362	-4.7975	-3.0693	3.0719	-2.0672	5.9266	-5.0555	-6.3838	0.333	0.333	0.333	0.333	0.333	0.333	0.333	0.333	0.333	0.333	0.333	0.333	0.333	0.333	0.333	0.333	0.333	0.333	0.333	6.327	1.6109	5.6018	3	221	1.38228633972235	0	1
"222"	3	49	4	4	4	1	8	1	1	2.578	2.7062	6.1607	6.5565	0.4011	7.0845	1.6139	12.6737	-1.3759	11.002	3.958	12.6854	-1.6383	6.0672	-1.7151	-2.6867	10.8372	3.6947	2.7922	0.7672	-1.5178	0.333	0.333	0.333	0.333	0.333	0.333	0.333	0.333	0.333	0.333	0.333	0.333	0.333	0.333	0.333	0.333	0.333	0.333	0.333	6.327	1.7211	4.3118	3	222	0.947013904516996	1	0
"223"	3	67	4	0	0	0	17	-1	0	5.397	-4.9344	0.4871	1.5146	9.311	9.8633	3.3107	2.9	-3.2327	1.1281	-1.8321	-8.6802	-4.0123	-4.1544	3.3579	-2.0791	3.4311	-4.6329	-8.3233	1.3872	4.4012	0.2779	0.3277	0.4794	0.225	0.3665	0.3093	0.2389	0.2971	0.2229	0.4492	0.296	0.4538	0.2005	0.3615	0.3131	0.5185	0.26	0.2972	0.4234	6.318	1.5799	6.9808	3	223	1.68584324363651	0	1
"224"	3	34	4	2	2	1	16	1	1	5.043	2.0296	2.6138	7.5769	-5.2067	-0.7025	7.143	1.6071	3.4905	8.4461	0.7385	-8.7779	0.8157	10.0367	4.734	5.9502	-1.9358	5.6737	-5.5447	-2.7035	4.4607	0.333	0.333	0.333	0.333	0.333	0.333	0.333	0.333	0.333	0.333	0.333	0.333	0.333	0.333	0.333	0.333	0.333	0.333	0.333	6.327	1.6027	6.6437	3	224	1.61800114309459	1	0
"225"	3	1	4	-4	-4	1	12	-1	1	3.886	-7.5317	-0.5411	2.0724	-3.739	5.781	-7.5223	-0.4199	5.4025	-7.4518	-4.3067	-1.7277	-14.1276	-6.7218	-11.5455	-3.0303	-5.7616	-3.9986	-8.842	-3.4273	-3.3337	0.333	0.333	0.333	0.333	0.333	0.333	0.333	0.333	0.333	0.333	0.333	0.333	0.333	0.333	0.333	0.333	0.333	0.333	0.333	6.327	1.4643	5.3704	3	225	1.35738035095525	0	1
"226"	3	22	4	-4	-4	0	6	-1	1	1.451	0.9778	-10.4003	-3.297	-7.7238	2.1257	-8.6103	2.1292	-5.7296	-6.6393	-1.917	-6.7249	-2.424	-14.2432	-8.1988	-4.2531	-5.2538	-6.9974	0.1246	5.6206	1.1811	0.2389	0.2086	0.2793	0.2466	0.4085	0.2179	0.347	0.4114	0.2265	0.4164	0.2404	0.3883	0.356	0.4438	0.4884	0.357	0.4511	0.3399	0.27	6.3361	1.6262	3.0848	3	226	0.372252973902051	0	1
"227"	3	43	4	-4	-4	1	10	-1	1	3.187	-5.3666	-6.7506	4.2877	-6.3285	2.7284	-6.3817	-3.8357	-10.745	-1.7077	-14.9932	-4.6068	2.7252	3.5222	-2.7466	-7.7916	-4.7125	-7.1412	2.1205	-7.5654	-6.4817	0.333	0.333	0.333	0.333	0.333	0.333	0.333	0.333	0.333	0.333	0.333	0.333	0.333	0.333	0.333	0.333	0.333	0.333	0.333	6.327	1.5846	4.7876	3	227	1.1590800354352	0	1
"228"	3	69	4	2	2	0	16	1	1	4.946	1.7009	-3.8669	2.3779	8.7103	2.2536	9.4615	-6.4401	1.0319	1.339	6.7084	-2.3605	0.583	11.1064	7.5136	3.1044	-3.2812	0.7749	6.1329	-2.3652	-5.1577	0.2425	0.4517	0.4034	0.2027	0.3268	0.2619	0.2959	0.3986	0.492	0.2502	0.3946	0.2023	0.2708	0.3196	0.2128	0.5061	0.3119	0.4598	0.3168	6.3206	1.7208	6.6806	3	228	1.59857916909922	1	0
"229"	3	64	4	-4	-4	0	6	-1	1	1.569	-0.6701	-0.8971	-6.1022	-5.8242	-4.1304	-9.2196	3.1079	-3.6486	-14.1592	0.4031	0.7023	0.4954	3.0863	-1.4972	-8.7437	-7.2469	-1.8151	-2.8337	-11.3497	-10.5852	0.2114	0.2458	0.4417	0.2512	0.3196	0.4787	0.227	0.4481	0.2581	0.5316	0.273	0.2023	0.2619	0.3937	0.4405	0.287	0.3763	0.4323	0.2455	6.3258	1.4648	3.0363	3	229	0.450438473750896	0	1
"230"	3	52	4	-1	-1	0	17	-1	1	5.357	0.5653	8.5511	-5.8453	-11.7242	-0.4592	-3.8427	0.7262	-3.4018	5.0392	0.6754	-3.6679	1.614	1.5668	-9.8924	-6.7426	3.1985	-1.3539	2.525	-1.2023	3.1453	0.4619	0.4945	0.2317	0.2645	0.4739	0.3571	0.2842	0.2243	0.4043	0.2502	0.3025	0.2254	0.2763	0.2417	0.4958	0.3654	0.2955	0.4422	0.2259	6.3174	1.4246	6.7907	3	230	1.67840411689882	0	1
"231"	3	54	4	1	1	0	11	-1	0	3.553	-0.3768	4.1583	0.9563	1.1361	3.6179	-2.9519	5.5135	2.9424	-6.9607	8.887	1.3716	0.045	-5.6392	-2.5915	4.5467	-0.4686	5.3536	11.5288	-2.1416	-8.857	0.4996	0.2537	0.3569	0.3956	0.2392	0.418	0.3393	0.2813	0.2171	0.4722	0.2119	0.4557	0.2051	0.4267	0.461	0.2543	0.2129	0.3368	0.291	6.3283	1.5373	5.1042	3	231	1.26779231703889	0	1
"232"	3	10	4	-1	-1	0	9	-1	1	3.119	3.863	3.7527	-6.6009	-2.6218	1.8506	-4.1231	-1.6636	-11.3285	-5.1979	3.5545	-0.8059	-1.1541	2.5332	-6.6339	-7.0184	-5.8105	0.8258	6.3903	8.1006	0.1129	0.5211	0.256	0.4345	0.2979	0.2045	0.3155	0.2332	0.4514	0.4814	0.2827	0.4986	0.2291	0.3903	0.431	0.2291	0.2885	0.2528	0.2267	0.3021	6.3264	1.6419	4.7699	3	232	1.13751243762567	0	1
"233"	3	33	4	1	1	1	9	1	1	2.685	4.7276	5.4342	9.1455	2.5135	-11.3792	5.436	1.3981	2.6274	4.274	2.9552	-3.1275	-3.3837	-3.6344	-0.0897	7.6222	4.3292	-3.3967	2.2114	-3.6847	-5.2233	0.333	0.333	0.333	0.333	0.333	0.333	0.333	0.333	0.333	0.333	0.333	0.333	0.333	0.333	0.333	0.333	0.333	0.333	0.333	6.327	1.5875	4.2691	3	233	0.987680727960828	1	0
"234"	3	5	4	1	1	1	20	1	1	7.356	0.4939	2.7479	0.0448	2.1733	1.4538	-5.2206	3.861	0.1101	-3.2221	-4.7813	-8.3025	6.6143	6.9483	0.3229	1.1892	-1.5867	14.5874	-1.1945	3.0361	2.3757	0.333	0.333	0.333	0.333	0.333	0.333	0.333	0.333	0.333	0.333	0.333	0.333	0.333	0.333	0.333	0.333	0.333	0.333	0.333	6.327	1.4934	8.857	3	234	1.99551630674207	1	0
"235"	3	45	4	-1	-1	1	16	-1	1	5.059	-2.5251	1.6854	-0.7579	4.0323	-2.9477	-1.8659	1.1458	-0.3436	-5.9792	-3.0539	3.6032	-2.4491	-12.4344	9.3051	-5.9546	-8.4765	-1.9665	6.7185	3.1857	-2.078	0.333	0.333	0.333	0.333	0.333	0.333	0.333	0.333	0.333	0.333	0.333	0.333	0.333	0.333	0.333	0.333	0.333	0.333	0.333	6.327	1.6841	6.7596	3	235	1.6211688353098	0	1
"236"	3	20	4	2	2	1	10	1	1	3.104	-0.0394	-2.2615	-0.0433	11.5577	6.921	1.236	-4.0871	-3.2921	6.5428	1.5823	0.4229	6.2328	1.5612	6.0601	8.1401	-3.9043	-4.6778	10.5354	-2.9636	2.0918	0.333	0.333	0.333	0.333	0.333	0.333	0.333	0.333	0.333	0.333	0.333	0.333	0.333	0.333	0.333	0.333	0.333	0.333	0.333	6.327	1.6187	4.7377	3	236	1.13269160232097	1	0
"237"	3	17	4	-1	-1	1	14	-1	1	4.574	1.7686	-6.1591	4.3533	-0.6717	-3.491	-4.635	1.225	-7.3784	5.0345	12.1375	-1.4627	-2.7091	-2.6945	-0.8139	-10.4971	-1.9091	1.3539	-3.4391	-2.4859	2.2339	0.333	0.333	0.333	0.333	0.333	0.333	0.333	0.333	0.333	0.333	0.333	0.333	0.333	0.333	0.333	0.333	0.333	0.333	0.333	6.327	1.4582	6.0419	3	237	1.52038809560059	0	1
"238"	3	27	4	2	2	0	18	1	1	5.809	1.8446	1.4128	6.1594	-4.3337	-0.4549	-3.1239	-2.0808	0.3849	1.726	-4.304	-2.0968	0.2979	7.6816	5.2526	9.2174	8.1055	5.1363	1.2194	-5.1495	12.5291	0.4166	0.352	0.4804	0.3447	0.2682	0.2259	0.394	0.4763	0.3106	0.2183	0.443	0.2546	0.3592	0.2555	0.3813	0.2185	0.3554	0.2313	0.3321	6.3178	1.4545	7.2765	3	238	1.7594084390104	1	0
"239"	3	26	4	1	1	0	17	-1	0	5.217	-1.8533	-0.6658	1.6958	2.4272	3.0384	0.4088	-0.252	-0.4062	-7.4863	12.9103	6.9471	1.378	3.1918	-8.5315	4.8068	-1.6925	3.1606	-4.2239	-3.4547	7.6191	0.2009	0.4137	0.3069	0.4946	0.2371	0.3955	0.4329	0.2682	0.3099	0.3693	0.21	0.3227	0.2665	0.2132	0.3434	0.306	0.3765	0.3375	0.5196	6.3245	1.5393	6.7674	3	239	1.65192252404026	0	1
"240"	3	14	4	4	4	0	10	1	1	3.199	6.441	5.8151	11.5811	-6.6562	3.3249	-1.1052	2.0293	-1.7923	3.5614	2.6768	9.6882	8.1981	8.8861	-1.7456	3.6473	3.4476	-3.4713	5.7261	12.3236	5.8294	0.4504	0.2629	0.3743	0.2115	0.4945	0.2657	0.369	0.3282	0.2834	0.207	0.2658	0.4018	0.3441	0.4952	0.3888	0.236	0.5004	0.2376	0.2043	6.321	1.4656	4.6659	3	240	1.16283826096738	1	0
"241"	3	29	4	-4	-4	1	8	-1	1	2.663	-4.7383	4.7069	-7.6107	-2.6166	-11.4653	-10.909	2.9679	0.4969	-8.4653	2.9568	-2.9505	0.7686	-8.1386	-7.2841	-2.8637	-0.9735	-11.0085	-4.6184	0.3698	-7.3809	0.333	0.333	0.333	0.333	0.333	0.333	0.333	0.333	0.333	0.333	0.333	0.333	0.333	0.333	0.333	0.333	0.333	0.333	0.333	6.327	1.463	4.1308	3	241	0.979453306831795	0	1
"242"	3	8	4	-4	-4	0	8	-1	1	2.397	-3.9555	-4.6553	-2.9376	1.0718	-4.1832	-12.2747	-6.2136	-12.2335	-5.2974	-1.3747	2.1407	-3.9211	-6.8499	-7.9512	-11.293	-7.3278	3.1259	-1.4744	6.0187	-0.2668	0.3102	0.2256	0.4725	0.2822	0.2162	0.4645	0.3687	0.2294	0.5282	0.3029	0.4436	0.2198	0.3701	0.3285	0.3915	0.3358	0.3002	0.2041	0.3266	6.3203	1.6512	4.0479	3	242	0.874217955452247	0	1
"243"	3	4	4	0	0	1	13	-1	1	4.244	4.2443	1.9808	0.1764	-7.2527	-0.8938	-1.3	-5.7241	2.7355	-2.4919	-5.5035	2.0766	1.4893	8.6596	-2.403	9.8022	-6.31	0.4292	-2.7761	8.2912	-4.3703	0.333	0.333	0.333	0.333	0.333	0.333	0.333	0.333	0.333	0.333	0.333	0.333	0.333	0.333	0.333	0.333	0.333	0.333	0.333	6.327	1.5637	5.8285	3	243	1.44550622075174	0	1
"244"	3	36	4	-4	-4	0	5	-1	1	1.223	-4.3016	-3.7592	-3.8963	-3.5975	-13.9569	-6.9921	-6.9612	2.7499	1.8655	-9.6369	-7.2914	-6.6565	3.7605	2.1734	4.4927	-5.6997	-2.2117	-4.6307	-12.2452	-3.8707	0.2886	0.2051	0.4696	0.2442	0.3468	0.205	0.3579	0.2718	0.4242	0.3393	0.2604	0.5027	0.2752	0.2111	0.5222	0.4688	0.2318	0.3759	0.3269	6.3276	1.4695	2.7073	3	244	0.201306856705035	0	1
"245"	3	60	4	0	0	1	18	-1	1	5.846	-2.2335	-5.0604	0.6488	8.4341	-4.6159	4.7399	-2.9015	3.7945	-4.8823	-3.5957	7.5914	9.4632	-3.0066	-2.1106	-1.0047	-1.0262	-7.9953	-1.3237	-1.5759	5.8813	0.333	0.333	0.333	0.333	0.333	0.333	0.333	0.333	0.333	0.333	0.333	0.333	0.333	0.333	0.333	0.333	0.333	0.333	0.333	6.327	1.5209	7.3799	3	245	1.76575766668905	0	1
"246"	3	70	4	4	4	0	13	1	1	4.283	-0.5583	-2.6775	7.7515	7.1726	5.0916	2.1613	1.9787	11.807	14.5178	2.3342	4.3378	-5.8717	4.7546	7.296	-3.9401	3.6311	9.5798	2.4267	3.1566	5.6572	0.2079	0.356	0.4086	0.5082	0.3925	0.2483	0.2158	0.3615	0.2065	0.5254	0.2152	0.3016	0.3427	0.3787	0.468	0.3872	0.255	0.3168	0.2338	6.33	1.6162	5.9172	3	246	1.45465369863323	1	0
"247"	3	28	4	4	4	0	14	1	1	4.566	4.0207	5.7417	5.9029	1.1496	-1.356	4.6353	5.6113	13.5198	2.0281	1.6259	-2.3897	-0.4549	1.9416	4.9998	-1.2478	-0.8091	6.7838	3.7881	17.8149	5.9	0.4705	0.3402	0.375	0.272	0.5188	0.2486	0.2767	0.249	0.2973	0.2247	0.3137	0.4642	0.2246	0.341	0.2413	0.508	0.3812	0.3467	0.2244	6.3178	1.5506	6.1337	3	247	1.5186375481076	1	0
"248"	3	24	4	-1	-1	0	10	-1	1	3.342	-1.4094	5.4829	-10.5141	5.3308	-0.7259	-0.6315	2.0755	-6.5981	-6.2321	-1.7729	-7.438	-3.9256	-5.5792	-3.9754	5.9493	5.2745	3.2227	-0.1189	-5.6364	5.5605	0.243	0.2	0.4828	0.4108	0.4421	0.2187	0.508	0.2015	0.2555	0.4215	0.3401	0.2392	0.3104	0.256	0.3277	0.5187	0.2309	0.4134	0.3102	6.3307	1.6441	4.9928	3	248	1.2065694301732	0	1
"249"	3	39	4	0	0	0	14	-1	0	4.591	3.3406	-1.791	0.176	7.7444	8.7096	0.1145	0.9443	3.3216	-0.9705	-1.8431	1.8645	-9.5654	-1.3153	-6.2272	5.141	4.0048	-2.8793	-10.4603	-2.0831	2.6279	0.4025	0.2807	0.248	0.3576	0.5005	0.2846	0.3148	0.2721	0.426	0.3056	0.4204	0.2263	0.4189	0.254	0.3336	0.2374	0.2756	0.4995	0.2682	6.3262	1.5184	6.1079	3	249	1.52409786526709	0	1
"250"	3	38	4	-1	-1	0	8	-1	1	2.573	-0.4415	-9.6375	4.9902	1.2843	1.0971	-6.3389	-3.9746	-4.345	-8.6384	7.6544	-1.4295	6.2795	-8	2.4253	-5.4175	3.1446	2.5179	-4.1815	-0.4506	1.995	0.2972	0.3584	0.4648	0.3054	0.2144	0.3007	0.2464	0.459	0.2614	0.3128	0.5119	0.2529	0.3898	0.2884	0.2099	0.4648	0.3794	0.2806	0.3263	6.3244	1.5291	4.1074	3	250	0.945072533299607	0	1
"251"	3	58	4	-2	-2	1	9	-1	1	2.833	-4.9293	8.9519	-11.2378	2.7758	-3.2419	-1.5219	-7.2747	0.0262	5.714	0.1394	-4.8803	-5.7953	-10.6833	-3.4836	-2.7733	-0.7558	-0.926	-0.8008	-3.2663	2.9283	0.333	0.333	0.333	0.333	0.333	0.333	0.333	0.333	0.333	0.333	0.333	0.333	0.333	0.333	0.333	0.333	0.333	0.333	0.333	6.327	1.652	4.4842	3	251	1.04133622084838	0	1
"252"	3	65	4	-2	-2	0	13	-1	1	4.054	-6.6044	-3.3894	1.909	-1.9498	-4.9245	-4.1585	-0.5976	-0.4313	3.9966	-1.2483	-4.5766	1.3875	-11.4374	-7.1802	0.9467	-0.4773	4.5382	4.1142	-12.5606	3.26	0.2861	0.4317	0.2216	0.4102	0.3543	0.5166	0.331	0.2766	0.3652	0.233	0.2026	0.2534	0.498	0.2092	0.2414	0.3118	0.4587	0.2769	0.4581	6.3364	1.7114	5.788	3	252	1.39970404802981	0	1
"253"	3	46	4	0	0	1	9	-1	0	2.995	-4.2808	7.5302	5.5069	7.6065	-3.1727	2.6955	-10.1874	-7.5594	1.4978	-2.3777	2.4594	1.6619	7.7436	-4.288	-3.9511	2.0646	-0.2217	1.2582	-1.9117	-3.5129	0.333	0.333	0.333	0.333	0.333	0.333	0.333	0.333	0.333	0.333	0.333	0.333	0.333	0.333	0.333	0.333	0.333	0.333	0.333	6.327	1.4704	4.4792	3	253	1.09694423156741	0	1
"254"	3	13	4	2	2	0	16	1	1	5.137	4.5633	2.1702	-2.3701	7.8349	-5.6386	0.1707	4.3435	0.9419	7.9357	2.8565	0.6935	6.7167	-4.1689	0.9591	3.7535	5.4083	-2.8631	13.3156	-2.5474	-5.9466	0.3026	0.3977	0.5096	0.418	0.2258	0.3927	0.2788	0.3104	0.211	0.3261	0.4862	0.2909	0.3283	0.2577	0.3157	0.2023	0.2546	0.4738	0.3456	6.3278	1.589	6.7374	3	254	1.63646925148513	1	0
"255"	3	16	4	-2	-2	1	7	-1	1	2.231	-6.3073	4.6124	-3.7063	-4.3578	-8.8447	-2.8645	-0.7972	1.4789	4.6387	5.1891	-13.1423	-8.0317	-0.1801	-0.3729	-3.3946	3.9686	-6.3526	-0.5922	-1.4858	0.5942	0.333	0.333	0.333	0.333	0.333	0.333	0.333	0.333	0.333	0.333	0.333	0.333	0.333	0.333	0.333	0.333	0.333	0.333	0.333	6.327	1.5211	3.7649	3	255	0.802449915450395	0	1
"256"	3	57	4	-4	-4	1	6	-1	1	1.84	-6.492	-2.6956	6.2787	-3.4008	-7.2615	-11.1652	-8.9928	-7.169	-6.0288	-10.7786	-4.4857	7.7164	-6.8079	-0.8522	-5.1232	-2.348	-3.8782	-5.2719	-4.0028	3.7612	0.333	0.333	0.333	0.333	0.333	0.333	0.333	0.333	0.333	0.333	0.333	0.333	0.333	0.333	0.333	0.333	0.333	0.333	0.333	6.327	1.4087	3.2574	3	256	0.609765571620894	0	1
"257"	3	12	4	1	1	0	13	-1	0	4.143	5.8562	0.082	0.8439	2.1272	-13.4398	2.4248	-3.8882	3.4061	2.2829	2.7167	2.2002	-1.8661	-3.6799	1.8045	5.9051	-0.4675	7.0607	-1.2563	10.0319	-1.1339	0.2119	0.4933	0.4665	0.383	0.2531	0.3693	0.3251	0.383	0.2085	0.516	0.2014	0.2647	0.2998	0.217	0.3569	0.3066	0.4585	0.2047	0.415	6.3345	1.468	5.6273	3	257	1.42142016309526	0	1
"258"	3	9	4	-2	-2	0	11	-1	1	3.381	1.6606	-3.2951	2.6475	3.8194	-1.0661	4.7106	-5.0838	-7.1174	-1.7899	-3.9064	-4.5235	-4.5422	-6.5396	0.1624	-5.9305	-4.0155	7.829	-5.6477	-13.0387	4.9057	0.2318	0.3258	0.3929	0.2459	0.3507	0.2535	0.2901	0.4207	0.3941	0.3625	0.2698	0.3232	0.2314	0.3625	0.4987	0.3125	0.5288	0.2034	0.3329	6.3311	1.5824	4.9649	3	258	1.21817152372575	0	1
"259"	3	41	4	2	2	0	9	-1	0	2.489	0.5545	-6.2295	5.9783	-5.5339	-2.9193	-2.6997	2.7795	-1.0906	10.8353	4.2385	-1.8344	5.5767	10.091	0.4064	8.43	-1.2817	2.7357	7.7835	-0.4345	4.1307	0.2905	0.2314	0.2655	0.2278	0.4545	0.3455	0.2459	0.3199	0.2183	0.3999	0.5046	0.2285	0.3255	0.3544	0.387	0.3461	0.4065	0.2806	0.4857	6.3181	1.4259	3.9225	3	259	0.911881023385455	0	1
"260"	3	44	4	-2	-2	1	10	1	0	3.295	2.6676	6.6041	-4.1958	-2.4023	2.7385	0.7871	5.4616	3.4307	-3.4382	-5.9041	-1.02	-1.8153	-9.0332	-2.1306	-4.0904	-10.5322	3.2771	-8.2226	-7.9462	-3.8731	0.333	0.333	0.333	0.333	0.333	0.333	0.333	0.333	0.333	0.333	0.333	0.333	0.333	0.333	0.333	0.333	0.333	0.333	0.333	6.327	1.6423	4.9455	3	260	1.19240616795447	1	0
"261"	3	30	4	-2	-2	1	7	-1	1	2.067	-5.3585	7.0013	-5.0159	-6.2582	-4.2605	-3.1662	-2.4966	-4.4528	-5.342	-3.7493	-4.1737	3.3842	-4.0476	10.0735	2.4175	-5.0418	5.8526	-2.6913	-5.0491	-7.7077	0.333	0.333	0.333	0.333	0.333	0.333	0.333	0.333	0.333	0.333	0.333	0.333	0.333	0.333	0.333	0.333	0.333	0.333	0.333	6.327	1.5876	3.6516	3	261	0.726098280699631	0	1
"262"	3	55	4	2	2	0	9	1	1	2.758	1.2139	-5.3555	2.2816	5.8948	8.4743	2.5658	7.2226	0.4297	0.2552	9.1072	0.377	11.514	2.1404	-6.413	6.614	-4.0137	0.1319	-4.8724	2.0013	0.4817	0.4311	0.2731	0.2242	0.372	0.2281	0.3898	0.522	0.2477	0.208	0.435	0.2811	0.4966	0.436	0.2596	0.3221	0.4069	0.2951	0.2167	0.2792	6.3242	1.4064	4.1757	3	262	1.01450577937111	1	0
"263"	3	25	4	0	0	0	12	1	0	3.646	2.8915	4.2875	-1.8775	-7.2713	4.3189	10.4469	6.9016	-4.2832	-4.4959	2.6125	-0.1475	-4.7905	-8.5541	3.4285	-6.0083	-0.8523	-1.6986	-0.1543	2.7979	0.4786	0.3126	0.2029	0.2743	0.2158	0.483	0.3853	0.3379	0.2045	0.2995	0.2143	0.3961	0.5299	0.3786	0.4115	0.3054	0.4571	0.3844	0.2563	0.2852	6.3347	1.6731	5.3302	3	263	1.29363067625647	1	0
"264"	3	23	4	-2	-2	0	13	-1	1	3.882	0.5771	1.6782	-6.751	-4.7935	4.6711	-4.5891	-3.2138	-3.2855	-1.1275	-2.0839	-6.8128	-8.8432	2.2139	-3.0453	-9.8414	1.3976	-0.3537	0.9418	10.3801	-8.8294	0.3436	0.2493	0.2033	0.5027	0.2034	0.3182	0.2357	0.3869	0.2741	0.3811	0.3508	0.2602	0.5287	0.2821	0.4606	0.3538	0.2335	0.2923	0.4594	6.3197	1.5399	5.4324	3	264	1.35635048474682	0	1
"265"	3	62	4	2	2	1	10	1	1	2.998	5.2557	3.0826	-11.0463	0.3087	-3.1051	8.5388	1.2962	7.6686	6.8105	7.5462	1.6538	-5.3856	2.6947	0.8206	-1.4681	-1.7605	2.6007	1.3913	4.8282	7.1821	0.333	0.333	0.333	0.333	0.333	0.333	0.333	0.333	0.333	0.333	0.333	0.333	0.333	0.333	0.333	0.333	0.333	0.333	0.333	6.327	1.6606	4.6657	3	265	1.09794539968041	1	0
"266"	3	47	4	1	1	1	7	-1	0	2.261	-2.5732	3.9599	-8.497	1.6521	5.2697	2.0592	-5.8207	-5.7618	4.2228	3.8183	8.6619	7.3643	2.0314	-0.1259	0.0319	-1.3338	-1.9026	9.8728	-4.2817	3.1908	0.333	0.333	0.333	0.333	0.333	0.333	0.333	0.333	0.333	0.333	0.333	0.333	0.333	0.333	0.333	0.333	0.333	0.333	0.333	6.327	1.5358	3.8115	3	266	0.815807193295833	0	1
"267"	3	66	4	-1	-1	0	8	-1	1	2.144	-0.5218	1.5741	1.41	-5.7326	0.4754	-11.4756	10.6599	1.1706	-3.4695	3.445	-7.6319	0.5184	-3.0133	-5.6435	-1.4824	1.0353	5.6542	-2.558	2.2422	-5.1091	0.3188	0.3696	0.2653	0.2334	0.201	0.3448	0.4014	0.2689	0.5197	0.2465	0.3081	0.2643	0.2921	0.4943	0.3537	0.4425	0.2325	0.4961	0.2789	6.3317	1.595	3.7452	3	267	0.762673243208556	0	1
"268"	3	6	4	2	2	1	11	-1	0	3.636	2.7203	-4.6618	6.6367	6.5214	-3.3857	-3.3392	0.2467	1.9682	6.3998	3.3302	7.0149	-0.8208	-7.2205	1.271	-5.5674	3.2693	7.3862	7.9851	10.7979	0.8987	0.333	0.333	0.333	0.333	0.333	0.333	0.333	0.333	0.333	0.333	0.333	0.333	0.333	0.333	0.333	0.333	0.333	0.333	0.333	6.327	1.6753	5.3204	3	268	1.29088417631523	0	1
"269"	3	63	4	4	4	1	8	1	1	2.422	3.8624	6.6605	11.4664	-0.325	4.8529	-1.1601	6.8657	-2.0392	-1.1492	1.5802	1.7709	8	-5.8895	8.1154	9.9374	-1.3981	13.2893	5.8206	5.6416	2.7944	0.333	0.333	0.333	0.333	0.333	0.333	0.333	0.333	0.333	0.333	0.333	0.333	0.333	0.333	0.333	0.333	0.333	0.333	0.333	6.327	1.6095	4.039	3	269	0.884593645130901	1	0
"270"	3	31	4	-1	-1	1	12	-1	1	3.868	1.7656	7.226	-3.6203	4.3431	0.1296	-1.5723	-8.3306	-0.1859	1.2561	-9.332	4.0155	-0.3128	-1.7467	-1.1584	8.9956	-5.8271	-8.8714	-1.7268	-1.4625	-4.4849	0.333	0.333	0.333	0.333	0.333	0.333	0.333	0.333	0.333	0.333	0.333	0.333	0.333	0.333	0.333	0.333	0.333	0.333	0.333	6.327	1.5811	5.4523	3	270	1.35273757759105	0	1
"271"	3	37	4	-2	-2	0	15	-1	1	4.78	-3.7021	-1.5697	-4.8995	0.1078	9.2253	5.7645	-8.61	-3.3655	-6.5309	-1.9088	-1.215	-3.7537	-5.6471	1.8921	3.0972	-0.2742	-6.8698	-7.9477	3.9681	-7.7062	0.3642	0.407	0.2142	0.4615	0.2352	0.3715	0.2053	0.2697	0.323	0.3855	0.456	0.2126	0.2878	0.5091	0.3486	0.3162	0.2551	0.4942	0.204	6.3207	1.4627	6.2477	3	271	1.56444054650336	0	1
"272"	3	51	4	-2	-2	0	10	-1	1	3.212	0.1075	-7.8407	0.4248	-3.3979	4.3256	4.1365	-4.4754	-3.7703	-4.6471	-2.7055	-0.2996	-12.3747	-0.6965	3.9524	6.8758	-1.9379	-8.1649	3.0392	-7.0813	-7.3083	0.2161	0.5269	0.2673	0.2148	0.3836	0.4718	0.2908	0.2182	0.3384	0.4496	0.5155	0.321	0.2879	0.2158	0.2425	0.4097	0.3062	0.2623	0.3903	6.3288	1.5677	4.7956	3	272	1.16689379608452	0	1
"273"	3	61	4	1	1	1	15	1	1	4.67	-1.0811	4.531	1.1437	2.8631	0.7007	1.6982	-1.0773	-5.1688	10.1665	4.6067	-3.336	5.4227	-6.612	1.2003	9.8981	5.3757	-0.7591	2.0053	-8.6599	-1.3025	0.333	0.333	0.333	0.333	0.333	0.333	0.333	0.333	0.333	0.333	0.333	0.333	0.333	0.333	0.333	0.333	0.333	0.333	0.333	6.327	1.6214	6.3046	3	273	1.54115907168081	1	0
"274"	3	19	4	1	1	1	18	1	1	5.884	1.5758	-2.7019	7.9445	7.4009	-0.497	1.8702	-3.6666	4.402	-6.0834	0.9769	-1.9363	3.6911	2.7135	11.1153	-4.7983	1.9319	-4.7038	7.9001	-2.686	-4.1084	0.333	0.333	0.333	0.333	0.333	0.333	0.333	0.333	0.333	0.333	0.333	0.333	0.333	0.333	0.333	0.333	0.333	0.333	0.333	6.327	1.5287	7.4185	3	274	1.77223680273919	1	0
"275"	3	53	4	0	0	0	7	-1	1	2.136	-1.7962	2.9639	-5.1282	-7.6065	-1.5929	-2.6985	-1.259	-2.5787	1.0063	1.7117	11.6095	-3.2647	5.7631	6.6737	-1.1199	-5.3644	5.713	-5.7074	-3.461	4.5276	0.2143	0.4559	0.2471	0.4604	0.3379	0.2032	0.3264	0.367	0.3241	0.2586	0.342	0.2812	0.4913	0.2553	0.3841	0.4921	0.3172	0.255	0.3087	6.322	1.4494	3.6037	3	275	0.758934921097948	0	1
"276"	3	2	4	-2	-2	1	5	-1	1	1.665	-5.9889	2.766	-5.3649	-2.4672	-1.0632	-3.0966	-2.3047	3.9811	3.073	-5.2125	-5.3512	-2.5884	-6.7503	-2.0348	-3.7755	2.7975	-9.459	-9.7389	5.8991	8.096	0.333	0.333	0.333	0.333	0.333	0.333	0.333	0.333	0.333	0.333	0.333	0.333	0.333	0.333	0.333	0.333	0.333	0.333	0.333	6.327	1.4934	3.1654	3	276	0.509825123432407	0	1
"277"	3	40	4	1	1	0	12	-1	0	3.986	-0.5874	1.154	0.9856	-0.4905	9.9246	-4.7526	-2.5562	4.4812	-4.6854	3.8554	5.5354	4.6034	-0.5503	-5.6569	5.4643	4.1906	7.5451	3.9815	-5.1552	-8.5051	0.4575	0.3049	0.3352	0.4763	0.2608	0.3719	0.5162	0.2357	0.2612	0.4327	0.238	0.2129	0.2503	0.2095	0.3503	0.2631	0.2285	0.4119	0.5122	6.3292	1.4534	5.4531	3	277	1.3827882217906	0	1
"278"	3	3	4	-1	-1	1	17	-1	1	5.359	-4.412	-1.507	10.9813	2.3529	-5.882	3.41	4.3003	1.5483	-2.9157	-0.4998	-2.8482	-2.9297	4.7879	-3.8031	3.0035	-3.134	-4.4596	-6.6634	-11.4389	-0.288	0.333	0.333	0.333	0.333	0.333	0.333	0.333	0.333	0.333	0.333	0.333	0.333	0.333	0.333	0.333	0.333	0.333	0.333	0.333	6.327	1.5889	6.9601	3	278	1.67877739051271	0	1
"279"	3	50	4	-4	-4	0	11	-1	1	3.937	-0.6144	0.2306	-4.1879	-3.0426	2.1147	0.7907	-4.1044	-5.2525	-2.2068	-12.7253	4.5907	-7.3673	1.4703	-12.142	0.3727	-5.8251	-10.0926	-4.2601	-4.7411	-11.1566	0.2673	0.3295	0.3577	0.4398	0.5053	0.3134	0.4537	0.3499	0.2374	0.386	0.5324	0.2008	0.3406	0.227	0.4653	0.2378	0.2053	0.2536	0.2147	6.3175	1.4557	5.4045	3	279	1.3704190119616	0	1
"280"	3	56	4	4	4	0	11	1	1	3.807	-0.9177	2.1936	6.0148	14.5614	-1.6598	1.3293	11.239	0.5444	-1.0373	4.3825	11.1934	-0.9073	8.0276	8.6423	5.5506	2.1688	-1.2079	-2.9423	7.7823	3.3434	0.4544	0.4139	0.2055	0.3535	0.3268	0.4738	0.3296	0.2248	0.5034	0.2446	0.3635	0.2451	0.2178	0.4798	0.2761	0.2141	0.2623	0.2205	0.5102	6.3196	1.6141	5.4243	3	280	1.33684147740036	1	0
"281"	3	56	5	4	4	0	18	1	1	6.007	8.4668	6.4937	6.8473	0.797	3.547	0.1729	0.9021	2.3165	3.7055	-6.0377	0.934	1.6577	6.7365	9.164	0.1561	9.6477	2.3395	0.4348	2.8261	17.3788	0.2055	0.5004	0.447	0.2494	0.3289	0.299	0.5055	0.3858	0.2647	0.2194	0.3811	0.4492	0.2668	0.4131	0.4758	0.2076	0.2767	0.2114	0.2428	6.33	1.6257	7.6412	3	281	1.79292545586802	1	0
"282"	3	35	5	4	4	1	7	1	1	2.229	1.6039	-0.7485	4.0343	5.2636	4.6115	9.1933	0.1133	5.4057	4.3148	14.623	7.5715	11.1432	2.819	7.299	-6.7741	6.3154	2.2316	0.752	-3.9394	3.9953	0.333	0.333	0.333	0.333	0.333	0.333	0.333	0.333	0.333	0.333	0.333	0.333	0.333	0.333	0.333	0.333	0.333	0.333	0.333	6.327	1.4448	3.6795	3	282	0.801553054403732	1	0
"283"	3	34	5	2	2	1	10	-1	0	3.257	0.3416	-0.2833	8.466	1.832	-2.7275	6.7483	5.8962	2.3099	-6.7082	0.7367	-4.3085	5.7154	9.6851	-3.4662	4.9893	12.7411	-0.1728	1.2808	-2.7084	0.8385	0.333	0.333	0.333	0.333	0.333	0.333	0.333	0.333	0.333	0.333	0.333	0.333	0.333	0.333	0.333	0.333	0.333	0.333	0.333	6.327	1.4001	4.6577	3	283	1.1808065262941	0	1
