"subNo"	"index"	"block"	"level"	"mean"	"periodicity"	"nEvents"	"answer"	"isCorrect"	"rt"	"s1"	"s2"	"s3"	"s4"	"s5"	"s6"	"s7"	"s8"	"s9"	"s10"	"s11"	"s12"	"s13"	"s14"	"s15"	"s16"	"s17"	"s18"	"s19"	"s20"	"t1"	"t2"	"t3"	"t4"	"t5"	"t6"	"t7"	"t8"	"t9"	"t10"	"t11"	"t12"	"t13"	"t14"	"t15"	"t16"	"t17"	"t18"	"t19"	"seqDuration"	"startInterval"	"trialDuration"	"pID"	"Trial"	"rtLog"	"right"	"left"
"1"	11	18	1	0	0	1	8	1	1	2.525	-1.8565	-1.7532	10.6003	-3.158	-0.0766	-3.3771	-3.7681	1.1135	5.233	-2.9325	3.7255	10.3272	-10.3445	-3.8138	0.2598	2.4744	3.6143	1.7165	-1.2418	-6.0278	0.333	0.333	0.333	0.333	0.333	0.333	0.333	0.333	0.333	0.333	0.333	0.333	0.333	0.333	0.333	0.333	0.333	0.333	0.333	6.327	1.6144	4.1423	11	1	0.926241062727323	1	0
"2"	11	35	1	4	5.62	1	4	1	1	1.065	5.4601	1.6935	14.1875	5.7631	-4.5131	3.7258	7.6137	4.2974	7.2207	-0.4484	7.4155	10.2109	9.5487	2.1019	-0.8991	4.6946	0.3079	13.6659	9.2304	9.5627	0.333	0.333	0.333	0.333	0.333	0.333	0.333	0.333	0.333	0.333	0.333	0.333	0.333	0.333	0.333	0.333	0.333	0.333	0.333	6.327	1.7287	2.7995	11	2	0.0629747991613884	1	0
"3"	11	22	1	-4	-5.62	0	4	-1	1	1.243	-6.5926	-2.8774	-3.5894	-5.6369	-8.7089	-10.6121	-6.4359	5.9667	-9.5	-5.7772	-6.7116	-5.888	-2.0322	-4.5768	-10.2829	4.4701	-10.3383	-13.551	1.2793	-10.5694	0.2686	0.3881	0.2534	0.3425	0.4573	0.4839	0.4215	0.2183	0.4238	0.2039	0.233	0.5081	0.2364	0.3978	0.2104	0.2982	0.3363	0.212	0.4323	6.3257	1.4356	2.6937	11	3	0.217527812528574	0	1
"4"	11	53	1	0	0	0	5	1	0	1.336	3.2529	2.4067	-0.3632	7.2456	2.9599	-5.9334	5.0026	-9.6321	-5.3208	4.2379	-7.4056	-4.5255	2.8242	-2.508	0.9515	3.2389	0.2061	4.6511	-7.0511	5.2594	0.2402	0.4782	0.3548	0.2272	0.4728	0.4034	0.2041	0.2965	0.3578	0.2244	0.503	0.2542	0.4461	0.3083	0.4266	0.2196	0.2791	0.3398	0.286	6.3221	1.4385	2.7863	11	4	0.289680075114454	1	0
"5"	11	38	1	-1	-1.405	0	6	-1	1	1.714	-5.9272	4.7854	-10.1998	0.481	-11.1976	2.7924	-10.6771	0.9237	-1.1547	1.716	5.8219	-2.2711	-4.3494	1.6447	-1.5515	1.7302	-5.0979	1.5461	4.3442	-2.1494	0.2309	0.4503	0.3239	0.3763	0.3146	0.2039	0.3814	0.2022	0.3611	0.2793	0.4301	0.5223	0.3947	0.3239	0.2275	0.507	0.2027	0.3173	0.282	6.3314	1.4919	3.2149	11	5	0.538829820175588	0	1
"6"	11	24	1	-1	-1.405	0	6	-1	1	1.815	-0.8479	-1.0693	-2.3651	0.6605	1.8699	-5.3422	-10.7388	-2.7011	4.0103	8.4761	5.9962	-9.5175	-6.5486	-3.1341	2.0929	2.0834	0.8622	-0.2904	-6.1513	-6.4539	0.3249	0.5299	0.2841	0.2435	0.2018	0.4301	0.2087	0.4839	0.2715	0.4052	0.2144	0.267	0.3978	0.3491	0.2236	0.3779	0.4861	0.2627	0.3588	6.3212	1.4706	3.2822	11	6	0.596085467716814	0	1
"7"	11	1	1	-4	-5.62	1	3	-1	1	0.918	-4.8938	-6.2256	1.1847	-7.6147	-6.1633	-3.9859	-11.3381	-7.2127	-7.0871	-1.0421	0.5812	1.1479	-1.8691	-10.3614	-4.8425	-0.1135	-13.8514	-2.7885	-8.1142	-17.1838	0.333	0.333	0.333	0.333	0.333	0.333	0.333	0.333	0.333	0.333	0.333	0.333	0.333	0.333	0.333	0.333	0.333	0.333	0.333	6.327	1.5603	2.4858	11	7	-0.0855578883616465	0	1
"8"	11	43	1	-4	-5.62	1	3	-1	1	0.802	-9.2627	-2.6469	6.6714	-8.5211	-8.4066	-11.7029	-5.1858	-5.594	-11.3829	-5.576	-2.7011	-4.781	-11.1401	-8.8019	-3.222	-13.7694	-3.2964	3.834	-6.9001	-1.8422	0.333	0.333	0.333	0.333	0.333	0.333	0.333	0.333	0.333	0.333	0.333	0.333	0.333	0.333	0.333	0.333	0.333	0.333	0.333	6.327	1.4107	2.2198	11	8	-0.220646671115623	0	1
"9"	11	61	1	1	1.405	1	3	-1	0	0.804	-2.7928	-6.3098	13.257	6.0873	2.5875	-4.217	0.1913	-0.2059	8.5853	3.6756	-4.9583	-3.2618	0.3891	1.7891	7.9808	1.4924	2.668	3.4104	-0.9236	-3.2542	0.333	0.333	0.333	0.333	0.333	0.333	0.333	0.333	0.333	0.333	0.333	0.333	0.333	0.333	0.333	0.333	0.333	0.333	0.333	6.327	1.6074	2.4052	11	9	-0.218156009803171	0	1
"10"	11	64	1	-4	-5.62	0	4	-1	1	0.929	-4.7852	-5.8945	-9.815	-12.7996	-2.7605	-4.6617	-16.5143	-8.3027	-2.6868	-8.9181	-3.3291	2.025	-10.976	0.0094	-2.4074	-0.243	-6.4803	-9.3346	-6.2335	2.9445	0.2694	0.2408	0.4164	0.3525	0.4656	0.3544	0.2156	0.3893	0.4156	0.2288	0.2652	0.4416	0.3126	0.3589	0.2379	0.4569	0.2525	0.4237	0.2297	6.3275	1.698	2.6299	11	10	-0.0736465401682985	0	1
"11"	11	13	1	2	2.81	0	5	1	1	1.216	3.7199	-2.3099	10.8659	-0.2415	-3.5419	1.1759	-0.8676	9.9405	0.1126	6.9111	7.2564	-4.3348	0.5041	7.9461	0.3465	0.0013	4.2438	11.4559	5.3276	-2.5954	0.3484	0.2108	0.2493	0.3015	0.3683	0.49	0.223	0.5308	0.2889	0.4938	0.2451	0.3044	0.3708	0.4814	0.3592	0.2614	0.3486	0.2047	0.2454	6.3259	1.4873	2.7167	11	11	0.195566783543975	1	0
"12"	11	9	1	-2	-2.81	0	7	-1	1	2.159	-5.1389	1.4133	-1.7983	-2.5695	-5.2242	-6.511	1.0511	-2.948	-7.4168	6.5566	2.8824	0.5999	-3.9277	-10.6516	-12.9768	4.379	-4.2469	1.9813	-1.6568	-8.4251	0.2157	0.3247	0.2223	0.3781	0.4259	0.318	0.2854	0.3977	0.2358	0.3576	0.2675	0.3728	0.2145	0.5029	0.4729	0.2908	0.4306	0.253	0.3529	6.3191	1.4937	3.6599	11	12	0.76964515153267	0	1
"13"	11	69	1	2	2.81	0	4	1	1	1.011	6.5594	3.9709	9.485	-0.0305	1.1129	8.0714	3.2211	0.7628	-6.713	11.5165	3.4391	1.2578	7.2277	5.8764	-1.0135	-5.6452	-1.6625	8.6097	-2.0537	0.7234	0.3987	0.2913	0.2056	0.5319	0.3134	0.3772	0.4669	0.2276	0.361	0.2444	0.2067	0.3992	0.2165	0.2617	0.4413	0.2056	0.292	0.4129	0.4773	6.3312	1.4139	2.4452	11	13	0.0109399400383343	1	0
"14"	11	28	1	4	5.62	0	2	1	1	0.666	7.5371	7.7758	5.202	14.5448	4.23	7.1145	9.0286	12.3475	5.4754	-9.4066	5.2781	1.2267	9.0069	8.7755	2.3283	9.6559	6.4728	2.6596	2.481	2.3977	0.2782	0.5167	0.2096	0.3104	0.3458	0.303	0.2145	0.3052	0.4428	0.3203	0.2064	0.3575	0.2954	0.4035	0.4655	0.4915	0.3198	0.2816	0.25	6.3178	1.6598	2.3331	11	14	-0.406465608441748	1	0
"15"	11	49	1	4	5.62	1	3	1	1	0.881	8.8638	11.4992	0.8029	8.2131	9.5961	13.3654	7.6008	-6.2289	-4.6118	6.7582	7.5723	7.5638	6.2554	3.8388	3.5388	2.9828	3.5463	8.6714	3.2087	9.5887	0.333	0.333	0.333	0.333	0.333	0.333	0.333	0.333	0.333	0.333	0.333	0.333	0.333	0.333	0.333	0.333	0.333	0.333	0.333	6.327	1.5876	2.4814	11	15	-0.126697653045958	1	0
"16"	11	37	1	-2	-2.81	0	3	-1	1	0.874	-3.1203	-5.2965	-8.1498	2.286	2.2404	-0.5101	-5.334	2.5083	3.1672	-1.077	-10.5712	-9.0863	-2.5884	-0.8038	-7.2667	7.7902	1.048	-6.1162	-10.0009	-6.0368	0.2726	0.3573	0.2561	0.204	0.4686	0.2544	0.2142	0.2989	0.2698	0.2998	0.4216	0.3957	0.506	0.2568	0.4696	0.2924	0.5191	0.359	0.2194	6.3353	1.6141	2.4914	11	16	-0.134674903326602	0	1
"17"	11	55	1	2	2.81	0	3	1	1	0.909	0.5439	8.6606	-2.5704	4.8871	2.7112	6.1306	8.0171	-3.0802	2.5025	4.2077	14.1893	6.8053	7.3285	-0.614	-3.3342	6.3176	-4.1163	1.3219	-1.9482	-0.7542	0.2368	0.4664	0.3577	0.5046	0.4141	0.2078	0.2625	0.225	0.3062	0.2533	0.3961	0.2021	0.3467	0.2471	0.4228	0.5005	0.3628	0.4064	0.2057	6.3247	1.7024	2.6266	11	17	-0.0954101848046582	1	0
"18"	11	47	1	1	1.405	1	3	1	1	0.912	5.1851	4.988	7.4928	-0.3423	-0.0331	3.2117	-6.066	-0.5723	12.5105	-3.966	1.5051	-5.4427	1.4608	0.5722	-0.8107	-8.8575	4.5525	5.8062	3.1346	3.4929	0.333	0.333	0.333	0.333	0.333	0.333	0.333	0.333	0.333	0.333	0.333	0.333	0.333	0.333	0.333	0.333	0.333	0.333	0.333	6.327	1.4193	2.3457	11	18	-0.0921152889078056	1	0
"19"	11	5	1	1	1.405	1	3	1	1	0.823	0.3172	3.1237	0.8328	8.9759	-6.6363	-2.5384	-0.7071	13.5063	5.4441	-4.5672	-6.0428	-3.0934	1.0599	3.2483	-3.2694	3.6099	3.5903	4.9905	2.0631	4.6498	0.333	0.333	0.333	0.333	0.333	0.333	0.333	0.333	0.333	0.333	0.333	0.333	0.333	0.333	0.333	0.333	0.333	0.333	0.333	6.327	1.6063	2.4408	11	19	-0.194799078305067	1	0
"20"	11	40	1	1	1.405	0	2	1	1	0.756	5.1377	0.4485	1.5656	0.8344	1.6537	-5.8447	-4.7322	6.3859	10.1278	-2.749	10.4946	-2.9215	-0.4055	1.9929	4.5089	-5.1996	0.8929	-6.0722	7.1465	6.1233	0.3417	0.4263	0.2113	0.2921	0.2199	0.4347	0.23	0.3318	0.2137	0.2475	0.2203	0.4003	0.5243	0.4801	0.2705	0.3666	0.4693	0.4127	0.2271	6.3201	1.5185	2.2735	11	20	-0.279713902802604	1	0
"21"	11	25	1	0	0	0	3	1	0	0.864	4.3443	0.0181	7.6522	-0.3341	-6.2694	-7.3261	-7.4745	-3.5181	10.4448	-2.1636	4.762	-3.7552	-2.8763	0.1265	-0.1877	-0.8768	3.7525	5.5031	2.7715	-3.4048	0.2283	0.2638	0.3862	0.2205	0.3148	0.2413	0.3869	0.3198	0.2625	0.3669	0.2083	0.3162	0.4662	0.3601	0.4468	0.4897	0.238	0.3726	0.445	6.3339	1.6292	2.4979	11	21	-0.146182510178081	1	0
"22"	11	8	1	-4	-5.62	0	4	-1	1	1.296	-10.5443	-3.9302	-4.7592	-3.6872	-4.7625	-12.1269	-5.8109	-8.9925	-11.0563	-4.1973	-6.9115	-6.8253	2.6773	3.0507	-4.864	2.5292	1.2978	-6.8667	-10.4476	-15.0694	0.428	0.3204	0.2527	0.3155	0.4897	0.2922	0.3319	0.2489	0.3858	0.3455	0.388	0.2371	0.4056	0.2844	0.2349	0.5094	0.2263	0.3685	0.2566	6.3211	1.6336	2.93	11	22	0.259282597930083	0	1
"23"	11	7	1	4	5.62	1	4	1	1	1.182	2.8092	2.4921	2.8101	0.1081	-0.2565	-1.9455	7.5593	5.8834	7.522	0.3746	6.6552	6.7785	-1.4754	12.4778	5.4403	9.1347	10.217	9.8704	16.3602	10.3905	0.333	0.333	0.333	0.333	0.333	0.333	0.333	0.333	0.333	0.333	0.333	0.333	0.333	0.333	0.333	0.333	0.333	0.333	0.333	6.327	1.5058	2.699	11	23	0.167207918983906	1	0
"24"	11	51	1	-2	-2.81	0	5	1	0	1.554	-0.1949	1.0858	-12.6042	-1.8878	1.1872	4.6008	-5.6816	-0.7901	-0.8895	-12.115	2.5028	-10.1412	-8.6597	0.1112	-4.7697	-3.0046	1.7454	-5.2395	-1.2395	0.9126	0.2938	0.2094	0.5049	0.4233	0.3624	0.2505	0.2941	0.3784	0.4796	0.3384	0.2297	0.3233	0.4694	0.2926	0.2094	0.2399	0.3492	0.3169	0.3643	6.3295	1.6466	3.2051	11	24	0.440832251945456	1	0
"25"	11	70	1	4	5.62	0	3	1	1	1.159	2.3048	3.939	8.4239	1.6685	0.3406	13.4395	16.1911	15.1932	4.0208	6.0239	1.4162	4.3896	-1.035	4.1979	7.7487	1.366	2.655	12.2919	3.6718	5.9971	0.3828	0.4967	0.3202	0.2572	0.2271	0.3179	0.2021	0.4244	0.2886	0.2615	0.5222	0.3022	0.4288	0.2755	0.3883	0.2112	0.2587	0.4179	0.3519	6.3353	1.6919	2.8595	11	25	0.147557564357615	1	0
"26"	11	36	1	-4	-5.62	0	6	1	0	1.632	-1.3579	-7.3271	2.3211	-6.7818	5.0711	-13.1014	0.0662	-5.8025	-12.512	-11.8873	-8.8488	-8.2973	-10.2082	-7.6593	-2.5816	0.4008	-2.3612	-6.5726	-8.6275	-7.3259	0.3824	0.2586	0.205	0.4199	0.2877	0.2043	0.506	0.203	0.2334	0.4412	0.2322	0.4571	0.3998	0.4549	0.2293	0.3155	0.359	0.2924	0.436	6.3176	1.5518	3.1826	11	26	0.489806256541915	1	0
"27"	11	34	1	2	2.81	1	6	1	1	1.876	1.5594	-0.0425	-2.9241	-4.1686	8.3455	-1.4569	2.2089	5.5603	-5.5204	0.0121	3.2542	8.3364	5.5093	6.3993	6.6495	14.1129	0.9425	2.5074	8.2226	-1.995	0.333	0.333	0.333	0.333	0.333	0.333	0.333	0.333	0.333	0.333	0.333	0.333	0.333	0.333	0.333	0.333	0.333	0.333	0.333	6.327	1.7291	3.6272	11	27	0.629141850584033	1	0
"28"	11	19	1	1	1.405	1	3	1	1	0.904	4.8331	4.4731	0.2333	-5.4326	-0.1446	-0.1247	-2.7355	0.9165	-1.042	10.0488	5.2538	10.5684	-1.7985	2.8594	3.5328	1.1926	5.5101	4.8322	-4.4286	-9.8453	0.333	0.333	0.333	0.333	0.333	0.333	0.333	0.333	0.333	0.333	0.333	0.333	0.333	0.333	0.333	0.333	0.333	0.333	0.333	6.327	1.6486	2.5715	11	28	-0.100925918589961	1	0
"29"	11	45	1	-1	-1.405	1	6	-1	1	1.967	-5.3603	-2.5806	-7.5529	-3.6609	0.7804	-2.7173	-5.4245	-9.4684	-1.2385	-4.4976	1.7442	8.1542	-3.7342	4.4867	-3.9523	5.6332	6.3323	-1.5665	-7.2142	1.8416	0.333	0.333	0.333	0.333	0.333	0.333	0.333	0.333	0.333	0.333	0.333	0.333	0.333	0.333	0.333	0.333	0.333	0.333	0.333	6.327	1.5638	3.5513	11	29	0.676509539406922	0	1
"30"	11	23	1	-2	-2.81	0	3	-1	1	1.072	-1.9185	-11.3539	-0.9691	-12.5352	-0.4836	1.9984	-2.221	2.3812	-3.755	3.8918	-1.3346	-4.3879	-13.2751	-6.9592	-1.0724	-0.6157	-6.504	4.3443	-0.2667	-2.2362	0.4474	0.3629	0.3904	0.2887	0.2206	0.3611	0.3349	0.2167	0.3489	0.5035	0.2777	0.2343	0.4253	0.2188	0.4619	0.2036	0.4292	0.2292	0.3783	6.3335	1.509	2.5893	11	30	0.0695260626486103	0	1
"31"	11	65	1	-2	-2.81	0	7	-1	1	2.268	-2.648	-2.4427	-0.3969	1.3404	-6.7541	-7.7581	3.8003	-0.9255	-4.319	-1.4326	3.5365	-2.5387	-5.3267	-0.2885	-1.9204	-1.0255	4.8347	-3.1968	-15.555	-11.5978	0.4034	0.2982	0.2658	0.2186	0.5024	0.2301	0.3897	0.2105	0.2457	0.4594	0.3971	0.4779	0.2008	0.2301	0.3508	0.3906	0.5211	0.2358	0.2893	6.3175	1.4845	3.7684	11	31	0.818898385865506	0	1
"32"	11	10	1	-1	-1.405	0	4	-1	1	0.978	-1.9573	-3.161	-1.7757	6.3745	-8.8825	-4.796	-2.7838	2.6826	0.6651	-8.3375	-6.1521	-5.8844	0.4652	2.0876	5.6655	-4.5605	-4.4795	-6.5561	8.715	4.141	0.3092	0.3479	0.3008	0.2252	0.3103	0.511	0.2111	0.3415	0.4688	0.3727	0.3219	0.4271	0.2213	0.257	0.32	0.4112	0.2285	0.3089	0.4286	6.3228	1.6372	2.6288	11	32	-0.0222456089473197	0	1
"33"	11	44	1	-2	-2.81	1	4	-1	1	1.216	-1.0261	-7.5784	-6.9438	5.8014	-6.7647	3.6439	4.2622	-4.0081	-7.171	1.7253	-10.2545	-1.2384	-4.6169	-11.3004	0.7554	1.4893	0.3731	-3.2061	-6.8055	-3.0088	0.333	0.333	0.333	0.333	0.333	0.333	0.333	0.333	0.333	0.333	0.333	0.333	0.333	0.333	0.333	0.333	0.333	0.333	0.333	6.327	1.417	2.6496	11	33	0.195566783543975	0	1
"34"	11	14	1	4	5.62	0	4	1	1	1.2	3.8156	3.6556	5.1689	4.9427	4.693	-1.1887	-5.6789	13.7945	7.4936	9.6139	9.3955	7.4297	8.2592	6.1708	6.2918	5.8531	11.3966	-2.0665	1.0174	13.2499	0.4749	0.267	0.3947	0.3011	0.261	0.2965	0.2462	0.3136	0.4343	0.356	0.2582	0.3993	0.3255	0.2368	0.2747	0.4879	0.2294	0.4269	0.3482	6.3323	1.7247	2.9339	11	34	0.182321556793955	1	0
"35"	11	11	1	0	0	0	4	-1	0	0.993	-4.1783	4.1671	-3.9122	-1.0943	-5.761	-0.2444	-2.0767	10.423	-6.9479	-0.9723	11.0565	1.5168	-2.1277	-5.6607	2.0844	-3.1769	3.9959	4.0894	-4.9051	3.0821	0.4305	0.2112	0.2774	0.4387	0.267	0.2073	0.3673	0.4056	0.4486	0.423	0.3297	0.2803	0.2234	0.3736	0.2302	0.4726	0.2432	0.3739	0.3209	6.3245	1.5254	2.5265	11	35	-0.00702461493696447	0	1
"36"	11	16	1	-2	-2.81	1	5	-1	1	1.638	-4.5605	-13.0116	2.7695	-6.996	-6.3371	0.0355	0.3014	-3.5135	-5.4625	-2.9918	2.388	-6.4975	2.2518	-10.4345	6.3604	1.0002	-5.9643	2.8937	-2.0149	-4.9571	0.333	0.333	0.333	0.333	0.333	0.333	0.333	0.333	0.333	0.333	0.333	0.333	0.333	0.333	0.333	0.333	0.333	0.333	0.333	6.327	1.6702	3.3219	11	36	0.493475985430878	0	1
"37"	11	62	1	2	2.81	1	4	1	1	1.313	3.9876	-2.3974	1.4023	1.324	8.9816	-0.7686	5.8101	-10.0267	-4.5847	4.431	9.3846	8.6159	-0.7744	5.4997	5.7096	1.3309	2.0054	10.2275	2.7564	4.8644	0.333	0.333	0.333	0.333	0.333	0.333	0.333	0.333	0.333	0.333	0.333	0.333	0.333	0.333	0.333	0.333	0.333	0.333	0.333	6.327	1.6634	2.9802	11	37	0.272314595320659	1	0
"38"	11	17	1	-1	-1.405	1	6	-1	1	1.753	-5.1699	-0.7781	8.7675	-0.1198	-1.882	0.1304	-1.5179	1.656	1.2187	5.0342	-3.0122	-4.4021	0.6524	-14.2368	6.9426	-4.6199	-6.2599	-1.6285	-4.4172	-3.8681	0.333	0.333	0.333	0.333	0.333	0.333	0.333	0.333	0.333	0.333	0.333	0.333	0.333	0.333	0.333	0.333	0.333	0.333	0.333	6.327	1.5293	3.2873	11	38	0.561328605939097	0	1
"39"	11	56	1	4	5.62	0	4	1	1	1.274	3.4534	1.8555	13.217	8.9292	1.2121	3.8239	7.3854	-0.6631	1.8928	9.2739	0.147	9.3109	11.637	13.8532	13.6066	3.3835	5.6138	-2.349	4.3068	2.396	0.2474	0.4695	0.3117	0.2667	0.3561	0.2195	0.3199	0.4314	0.2421	0.3958	0.2394	0.3	0.3549	0.4008	0.2578	0.3757	0.4407	0.3057	0.3979	6.3329	1.5536	2.8249	11	39	0.242161557149972	1	0
"40"	11	66	1	-1	-1.405	0	8	-1	1	2.266	0.6798	1.359	-2.3845	6.1491	-7.6864	-6.8473	-3.2865	-2.5252	6.126	-0.9596	2.3477	-0.3383	-1.126	-9.1485	-9.1549	-9.1427	3.5027	5.6518	0.1641	-3.1503	0.4677	0.2916	0.3879	0.1998	0.2676	0.2117	0.2477	0.304	0.4648	0.2973	0.3425	0.4639	0.3067	0.4701	0.3383	0.3894	0.3548	0.2017	0.3187	6.3263	1.655	3.9166	11	40	0.818016162605815	0	1
"41"	11	54	1	1	1.405	0	3	1	1	0.89	5.1431	-2.6848	1.7377	-6.275	-0.1608	-1.4212	-1.8088	10.104	3.9043	-2.6113	1.1424	-0.1463	7.6917	1.1397	-9.9092	8.6154	-0.2833	2.5984	3.6414	7.1742	0.3478	0.2234	0.3807	0.3508	0.3791	0.2496	0.4813	0.2867	0.3843	0.4592	0.3661	0.4232	0.1998	0.4258	0.3036	0.2777	0.2076	0.3366	0.2393	6.3228	1.6364	2.5411	11	41	-0.116533816255952	1	0
"42"	11	21	1	4	5.62	1	3	1	1	0.968	8.7781	7.6646	-0.289	5.35	10.1974	10.4143	11.2787	5.9447	0.8223	12.0392	5.0776	-2.5366	1.0565	2.1553	7.8909	4.9461	12.1202	-3.7825	12.5274	1.681	0.333	0.333	0.333	0.333	0.333	0.333	0.333	0.333	0.333	0.333	0.333	0.333	0.333	0.333	0.333	0.333	0.333	0.333	0.333	6.327	1.5554	2.5352	11	42	-0.0325231917055601	1	0
"43"	11	67	1	0	0	0	4	1	0	1.132	0.6699	-2.8525	5.7343	-8.3141	-1.6152	4.7716	8.9707	3.9569	0.5205	-4.3954	-2.0958	-1.7016	1.7485	0.7494	-4.4025	0.5312	2.879	0.6577	-12.4596	5.5146	0.2846	0.2518	0.4237	0.2156	0.4621	0.2581	0.368	0.4336	0.3117	0.4279	0.3513	0.5038	0.2318	0.3642	0.2252	0.2518	0.2149	0.4019	0.354	6.3359	1.5547	2.6995	11	43	0.123985979780991	1	0
"44"	11	30	1	-2	-2.81	1	6	-1	1	1.903	-4.4565	-6.6445	4.9845	-5.3931	-8.192	0.793	1.5626	-8.2008	3.2067	-8.9879	0.4528	-0.088	-9.2711	7.3665	1.6761	-5.2458	-3.6485	-6.2382	-7.1724	-4.0545	0.333	0.333	0.333	0.333	0.333	0.333	0.333	0.333	0.333	0.333	0.333	0.333	0.333	0.333	0.333	0.333	0.333	0.333	0.333	6.327	1.6053	3.5208	11	44	0.643431588314012	0	1
"45"	11	6	1	2	2.81	1	4	1	1	1.091	4.7178	-1.3522	14.2862	0.7656	2.2472	-3.4174	6.2955	4.7939	1.5762	-6.8373	4.0586	-2.8892	3.6392	8.2079	3.7913	3.4746	-2.1097	4.1389	1.4214	10.6313	0.333	0.333	0.333	0.333	0.333	0.333	0.333	0.333	0.333	0.333	0.333	0.333	0.333	0.333	0.333	0.333	0.333	0.333	0.333	6.327	1.4243	2.5249	11	45	0.0870947068509337	1	0
"46"	11	50	1	-4	-5.62	0	5	-1	1	1.658	-1.3983	-5.5529	-5.6205	-8.3609	-8.0236	-0.0404	-1.3085	-3.2049	3.8368	-11.6993	-7.1395	1.1258	-14.074	-12.3241	0.6268	-3.7962	-8.406	-5.691	-7.5247	-13.2436	0.425	0.5088	0.2649	0.2087	0.2671	0.5272	0.2213	0.344	0.4545	0.3973	0.3305	0.3036	0.2524	0.3868	0.212	0.2374	0.3533	0.4086	0.2335	6.3368	1.5374	3.2085	11	46	0.505612056713103	0	1
"47"	11	32	1	0	0	1	8	-1	0	2.387	1.5222	-4.9786	1.1669	-2.1227	5.4883	1.0653	-4.323	-0.1654	4.7696	3.3628	0.4314	-8.9511	-1.4802	-3.8423	7.9129	6.8429	-0.3557	4.6386	-0.3969	-11.4514	0.333	0.333	0.333	0.333	0.333	0.333	0.333	0.333	0.333	0.333	0.333	0.333	0.333	0.333	0.333	0.333	0.333	0.333	0.333	6.327	1.6943	4.0873	11	47	0.870037347356693	0	1
"48"	11	46	1	0	0	1	7	1	0	2.12	-4.8829	-7.276	-0.285	6.672	8.1091	-2.8048	-1.0678	5.7631	0.2527	-5.3012	-3.9005	5.8867	-1.7499	6.653	5.7765	-5.5451	-1.1064	-5.1854	-1.2201	2.9387	0.333	0.333	0.333	0.333	0.333	0.333	0.333	0.333	0.333	0.333	0.333	0.333	0.333	0.333	0.333	0.333	0.333	0.333	0.333	6.327	1.6862	3.8209	11	48	0.751416088683921	1	0
"49"	11	60	1	0	0	1	8	1	0	2.371	-2.6382	8.0854	-10.2704	-0.6191	9.064	1.893	0.3892	-4.1473	-2.7003	-0.216	3.0942	-8.8	7.9034	-5.1162	-1.8381	0.4971	1.4559	-0.8885	4.8191	-0.2452	0.333	0.333	0.333	0.333	0.333	0.333	0.333	0.333	0.333	0.333	0.333	0.333	0.333	0.333	0.333	0.333	0.333	0.333	0.333	6.327	1.5629	3.9385	11	49	0.863311807083268	1	0
"50"	11	2	1	-2	-2.81	1	4	-1	1	1.096	-4.6527	-7.8186	-10.9777	-5.8857	-5.3635	-4.4196	-6.9542	2.8437	-1.772	4.4734	-6.1588	-0.4111	1.6335	-5.2745	3.3517	-11.5893	-0.3714	-0.1842	7.2552	-2.27	0.333	0.333	0.333	0.333	0.333	0.333	0.333	0.333	0.333	0.333	0.333	0.333	0.333	0.333	0.333	0.333	0.333	0.333	0.333	6.327	1.5781	2.6804	11	50	0.0916671885258239	0	1
"51"	11	31	1	-1	-1.405	1	7	1	0	2.303	-2.7674	3.4027	4.3485	-8.0863	-2.2064	-4.2594	-1.2896	-6.8608	-7.9567	-1.4241	5.9039	5.6136	-3.7243	4.5471	2.814	-4.3573	2.7815	-7.724	-8.9072	2.4465	0.333	0.333	0.333	0.333	0.333	0.333	0.333	0.333	0.333	0.333	0.333	0.333	0.333	0.333	0.333	0.333	0.333	0.333	0.333	6.327	1.6843	3.9875	11	51	0.834212620838548	1	0
"52"	11	4	1	0	0	1	4	-1	0	1.287	-2.7092	-9.0766	-4.3523	-3.963	-4.446	0.1647	-8.1723	3.8174	2.5118	2.5289	3.8746	-3.8282	-2.5135	4.6343	3.0451	-0.7406	10.5215	5.7767	3.0353	-2.1039	0.333	0.333	0.333	0.333	0.333	0.333	0.333	0.333	0.333	0.333	0.333	0.333	0.333	0.333	0.333	0.333	0.333	0.333	0.333	6.327	1.5822	2.8713	11	52	0.25231392861399	0	1
"53"	11	58	1	-2	-2.81	1	8	1	0	2.505	-1.0552	5.0567	0.4379	-4.8381	6.3765	1.483	1.0402	-7.4039	-1.4887	-2.8324	-3.8617	1.865	-8.3984	-1.1706	-8.9927	-2.2192	-3.7834	-13.9807	-3.8573	-7.1124	0.333	0.333	0.333	0.333	0.333	0.333	0.333	0.333	0.333	0.333	0.333	0.333	0.333	0.333	0.333	0.333	0.333	0.333	0.333	6.327	1.691	4.2062	11	53	0.918288734536828	1	0
"54"	11	48	1	2	2.81	1	5	1	1	1.472	4.9814	2.5774	-5.0705	11.8753	-5.6722	0.6438	1.7402	4.7295	11.8755	4.3983	8.286	-1.6396	-5.3613	7.2753	1.1092	6.62	3.9043	1.5357	3.5536	-0.6029	0.333	0.333	0.333	0.333	0.333	0.333	0.333	0.333	0.333	0.333	0.333	0.333	0.333	0.333	0.333	0.333	0.333	0.333	0.333	6.327	1.4806	2.9564	11	54	0.386622020306684	1	0
"55"	11	52	1	-1	-1.405	0	8	1	0	2.467	2.6485	-11.6442	-5.2315	-3.7959	-3.8235	4.8046	-3.4379	3.2286	6.8388	-8.9962	2.1229	0.8582	1.8687	-1.3756	0.5765	3.0226	-1.1104	0.2234	-2.5348	-11.2485	0.4676	0.2357	0.3017	0.3937	0.274	0.3567	0.2454	0.388	0.4647	0.3874	0.2666	0.4047	0.3042	0.2036	0.4146	0.3815	0.2586	0.354	0.2156	6.3183	1.5726	4.0508	11	55	0.90300283754722	1	0
"56"	11	63	1	4	5.62	1	5	1	1	1.523	8.4559	6.5651	1.24	-2.4527	10.7254	3.9408	4.9483	1.8657	3.3162	8.3999	-2.235	6.7828	0.4486	-0.3168	5.9549	13.8071	14.4871	10.0346	11.7656	3.0243	0.333	0.333	0.333	0.333	0.333	0.333	0.333	0.333	0.333	0.333	0.333	0.333	0.333	0.333	0.333	0.333	0.333	0.333	0.333	6.327	1.53	3.0736	11	56	0.420682073913025	1	0
"57"	11	59	1	-1	-1.405	1	6	1	0	1.673	1.22	5.0847	-4.8491	-3.4637	-7.3128	-1.9679	-14.7683	-7.0043	3.6717	-1.8306	7.5271	-0.4922	-2.5736	-1.9663	-0.5742	4.8789	2.2877	-4.3502	-3.6263	0.8124	0.333	0.333	0.333	0.333	0.333	0.333	0.333	0.333	0.333	0.333	0.333	0.333	0.333	0.333	0.333	0.333	0.333	0.333	0.333	6.327	1.5337	3.2242	11	57	0.514618422004687	1	0
"58"	11	39	1	0	0	0	12	1	1	3.824	-0.1747	1.4632	-7.1148	-1.3321	2.7936	3.9829	-9.0061	-4.7166	-5.6961	1.8389	-0.619	-4.5013	4.5304	-1.443	-2.8536	8.38	10.8307	-1.8127	0.9754	4.4574	0.3871	0.5247	0.2176	0.4891	0.3812	0.2349	0.3807	0.4196	0.2002	0.2967	0.2697	0.4405	0.3046	0.465	0.2715	0.3014	0.224	0.2961	0.2187	6.3231	1.625	5.458	11	58	1.34129699518915	1	0
"59"	11	3	1	-1	-1.405	1	5	-1	1	1.615	-3.0027	-9.5119	-2.8707	-0.8507	2.9917	-9.8492	-0.5093	1.088	-3.0797	-5.0882	1.7794	-0.5548	5.2783	2.5643	-11.1388	-0.7591	-3.7419	5.0915	-3.5457	7.3889	0.333	0.333	0.333	0.333	0.333	0.333	0.333	0.333	0.333	0.333	0.333	0.333	0.333	0.333	0.333	0.333	0.333	0.333	0.333	6.327	1.6496	3.2824	11	59	0.47933495667462	0	1
"60"	11	12	1	1	1.405	0	6	1	1	1.445	4.4294	-0.5389	6.0846	6.4823	9.2641	-3.0318	-5.9196	4.9384	8.1036	-6.7613	-2.5269	0.7507	4.407	-5.1917	-5.448	4.3147	0.7537	-0.2947	4.175	5.6746	0.2142	0.3927	0.2399	0.3306	0.2569	0.3841	0.4183	0.4695	0.2028	0.2349	0.4633	0.4063	0.2384	0.3676	0.2034	0.5008	0.2154	0.3046	0.4909	6.3346	1.7106	3.1622	11	60	0.368109321564396	1	0
"61"	11	33	1	1	1.405	1	6	1	1	1.834	6.2318	5.6214	-5.691	-0.4609	4.1714	-7.5108	-2.1539	-1.4033	-3.2807	0.1144	5.6328	-5.5527	7.8438	0.238	6.6083	0.5516	-0.6081	11.0459	5.0705	2.4164	0.333	0.333	0.333	0.333	0.333	0.333	0.333	0.333	0.333	0.333	0.333	0.333	0.333	0.333	0.333	0.333	0.333	0.333	0.333	6.327	1.6406	3.485	11	61	0.606499373834273	1	0
"62"	11	68	1	1	1.405	0	7	1	1	1.936	0.7435	10.0344	-3.1195	-2.6365	5.2756	6.4065	-3.658	-0.2449	0.1712	1.5973	-8.8556	-6.2908	4.6775	3.083	7.6449	9.2954	1.0794	-0.5935	0.3803	1.7845	0.2253	0.3458	0.2889	0.4391	0.2218	0.3302	0.419	0.3114	0.2084	0.2663	0.2056	0.4012	0.5315	0.4973	0.4124	0.2278	0.4587	0.2407	0.3005	6.3318	1.5369	3.4866	11	62	0.660623988854385	1	0
"63"	11	42	1	4	5.62	0	4	1	1	1.17	7.2378	8.4624	8.076	4.9146	2.7087	9.1402	4.1837	7.4348	10.3325	-4.6381	1.639	5.841	-0.3616	5.9834	5.3122	10.9528	-2.1201	10.7727	1.0656	16.0993	0.2302	0.3972	0.3024	0.4322	0.3094	0.2725	0.2977	0.4727	0.2168	0.2877	0.2111	0.4946	0.4291	0.3256	0.5088	0.3184	0.2324	0.2708	0.3163	6.3258	1.4808	2.6543	11	63	0.157003748809665	1	0
"64"	11	29	1	-4	-5.62	1	4	-1	1	1.237	-6.9839	-16.4187	-5.9443	-14.3044	-10.1385	-5.3281	0.3324	-5.9997	-3.9722	1.1556	2.6957	-8.9631	-7.3251	-8.7529	-7.8673	-4.9708	-4.2071	-2.6652	-3.1456	2.0545	0.333	0.333	0.333	0.333	0.333	0.333	0.333	0.333	0.333	0.333	0.333	0.333	0.333	0.333	0.333	0.333	0.333	0.333	0.333	6.327	1.469	2.7048	11	64	0.212689093410351	0	1
"65"	11	41	1	2	2.81	0	5	1	1	1.445	5.6099	-1.1147	6.8887	8.3118	0.3028	13.9613	5.2143	2.1607	0.0131	0.1876	3.7845	0.9678	4.5996	2.7439	-1.6313	-4.3191	3.4643	-1.395	-5.2677	12.551	0.22	0.4737	0.212	0.4923	0.2255	0.3379	0.2952	0.3605	0.2982	0.229	0.3837	0.4349	0.3485	0.2381	0.2102	0.3279	0.3865	0.5014	0.3457	6.3211	1.4453	2.8957	11	65	0.368109321564396	1	0
"66"	11	15	1	-4	-5.62	1	5	-1	1	1.519	-9.5913	-2.9386	-9.9485	-4.5437	-1.4523	3.2302	0.4041	-12.8529	-1.6298	-3.7915	-1.9003	-0.5482	-4.5348	-7.2112	-8.5624	-2.6696	-8.4478	-14.5973	-14.9011	-6.9447	0.333	0.333	0.333	0.333	0.333	0.333	0.333	0.333	0.333	0.333	0.333	0.333	0.333	0.333	0.333	0.333	0.333	0.333	0.333	6.327	1.5673	3.0865	11	66	0.418052223613636	0	1
"67"	11	57	1	-4	-5.62	1	5	-1	1	1.514	-0.9818	-5.7177	-7.8176	-2.8657	-10.8982	-2.3494	-12.8571	-13.0036	-7.6851	-3.3451	-1.7165	-4.0637	-11.614	-11.7851	-1.7259	-9.4076	-3.5459	3.2496	-9.0703	3.4726	0.333	0.333	0.333	0.333	0.333	0.333	0.333	0.333	0.333	0.333	0.333	0.333	0.333	0.333	0.333	0.333	0.333	0.333	0.333	6.327	1.6273	3.1476	11	67	0.414755155015257	0	1
"68"	11	27	1	2	2.81	0	6	1	1	1.5	-0.7669	13.287	-0.3093	-2.6102	3.4295	-1.5171	5.6654	-1.6073	8.5893	1.7554	1.2015	13.7064	1.2555	8.8655	-1.5054	2.1667	-0.1494	4.3986	6.1746	-3.9673	0.2489	0.3229	0.2278	0.3169	0.277	0.417	0.299	0.3991	0.511	0.2999	0.3392	0.2803	0.3677	0.3168	0.3516	0.2747	0.3753	0.4252	0.2787	6.329	1.6154	3.1171	11	68	0.405465108108164	1	0
"69"	11	26	1	1	1.405	0	8	1	1	2.076	2.3787	8.6763	-5.289	1.0977	9.7272	10.7364	6.8295	2.6059	-1.9901	-0.8901	-3.0572	-3.7154	-5.7714	6.0818	2.157	4.4378	-1.4344	-2.0558	1.9785	-4.3185	0.4627	0.244	0.2112	0.3135	0.2792	0.2052	0.2786	0.4364	0.3219	0.4328	0.2262	0.2915	0.4385	0.3438	0.2762	0.2436	0.5084	0.482	0.3262	6.3219	1.4652	3.5604	11	69	0.730442965303642	1	0
"70"	11	20	1	2	2.81	1	7	1	1	2.029	-1.9341	4.4678	5.7015	1.0892	9.8991	-0.1099	6.7677	-2.3824	-7.0939	3.8655	-3.1343	2.9014	13.4636	1.3403	5.2165	1.1129	6.1944	7.8004	5.6688	-4.4543	0.333	0.333	0.333	0.333	0.333	0.333	0.333	0.333	0.333	0.333	0.333	0.333	0.333	0.333	0.333	0.333	0.333	0.333	0.333	6.327	1.451	3.4963	11	70	0.707543060843678	1	0
"71"	11	42	2	4	5.62	0	6	1	1	1.782	6.4729	-0.6807	17.5458	8.8191	12.5708	7.1497	7.8009	8.778	12.5009	0.5396	0.7787	2.211	1.028	5.439	6.0342	2.7746	7.0514	5.4598	-1.5673	0.3228	0.4374	0.2786	0.3823	0.2775	0.2218	0.3435	0.3069	0.3327	0.4678	0.3444	0.4924	0.311	0.3643	0.2382	0.4155	0.3507	0.2399	0.2934	0.2323	6.3306	1.4375	3.2325	11	71	0.577736329048618	1	0
"72"	11	17	2	-1	-1.405	1	5	1	0	1.511	-4.0315	-2.1051	6.9243	-5.2788	-4.3166	2.651	-7.1698	2.9542	-3.5253	-4.5887	8.9575	0.633	-4.641	-0.9365	-6.8155	2.8651	-3.5521	0.4431	-10.2586	5.2737	0.333	0.333	0.333	0.333	0.333	0.333	0.333	0.333	0.333	0.333	0.333	0.333	0.333	0.333	0.333	0.333	0.333	0.333	0.333	6.327	1.6969	3.2121	11	72	0.412771683290602	1	0
"73"	11	35	2	4	5.62	1	4	1	1	1.152	8.5188	1.4605	2.9616	2.9244	2.694	17.2153	7.4396	9.8338	-3.2121	1.678	1.9887	4.0028	1.2213	14.7557	3.7289	5.7049	8.3867	3.2771	10.5806	5.2613	0.333	0.333	0.333	0.333	0.333	0.333	0.333	0.333	0.333	0.333	0.333	0.333	0.333	0.333	0.333	0.333	0.333	0.333	0.333	6.327	1.6957	2.853	11	73	0.141499562273699	1	0
"74"	11	16	2	-2	-2.81	1	5	-1	1	1.443	-2.8416	-4.533	-0.179	-4.3929	-8.9489	-8.6428	0.6098	-1.5087	-11.1983	-2.3077	-0.5717	-6.512	-1.5024	-8.1342	8.3906	3.664	-1.953	5.6968	-4.329	-7.3333	0.333	0.333	0.333	0.333	0.333	0.333	0.333	0.333	0.333	0.333	0.333	0.333	0.333	0.333	0.333	0.333	0.333	0.333	0.333	6.327	1.4131	2.8605	11	74	0.366724279791734	0	1
"75"	11	11	2	0	0	0	7	-1	0	1.954	-2.5391	-2.9906	4.1906	-1.0694	0.2798	-0.8063	7.8319	-2.6839	-9.0199	-0.6134	2.8001	1.5661	6.068	-7.1183	4.6368	9.1603	-4.4889	-8.2439	2.1583	0.5759	0.2154	0.3311	0.2528	0.5068	0.2973	0.2522	0.3071	0.4765	0.2207	0.4	0.4766	0.3238	0.2285	0.3975	0.3219	0.4146	0.3701	0.221	0.3224	6.3363	1.4301	3.3883	11	75	0.669878553620591	0	1
"76"	11	8	2	-4	-5.62	0	5	-1	1	1.657	-10.4154	-1.6332	-7.9013	-9.7369	0.4569	-11.581	-4.1935	3.2493	-4.9131	-7.1231	-1.7495	-1.6483	-1.1865	-9.078	-9.6503	-13.1412	1.6406	-2.393	-13.3402	-9.8929	0.4321	0.2854	0.2378	0.5327	0.3358	0.4155	0.4955	0.2076	0.369	0.2504	0.2074	0.2468	0.2867	0.4942	0.3123	0.2744	0.2319	0.4752	0.2423	6.333	1.435	3.0908	11	76	0.505008738444426	0	1
"77"	11	40	2	1	1.405	0	6	1	1	1.957	2.2284	1.2991	-3.5326	4.8133	0.7402	3.7603	-0.7616	-2.8727	-0.8857	-1.6586	2.2945	8.2938	-5.1063	10.6613	-2.3095	0.5494	-4.8833	3.7041	14.3608	-1.6713	0.2267	0.466	0.5064	0.2192	0.4548	0.2369	0.423	0.2633	0.3091	0.2057	0.2748	0.3696	0.4667	0.2099	0.3991	0.2489	0.3348	0.4765	0.2429	6.3342	1.6372	3.5915	11	77	0.671412688413939	1	0
"78"	11	48	2	2	2.81	1	5	1	1	1.565	4.0424	10.1778	-0.8248	3.3348	2.3502	1.877	2.8495	2.3241	7.739	3.2819	8.1829	-1.1678	-5.228	-0.5567	-0.6417	4.3749	4.8966	16.1144	-1.8689	-3.8584	0.333	0.333	0.333	0.333	0.333	0.333	0.333	0.333	0.333	0.333	0.333	0.333	0.333	0.333	0.333	0.333	0.333	0.333	0.333	6.327	1.6593	3.2322	11	78	0.447885823992117	1	0
"79"	11	59	2	-1	-1.405	1	4	1	0	1.21	-3.1525	0.9213	-2.3555	8.5103	-3.4346	3.8071	-5.13	-4.3714	-10.3404	-2.2596	-4.5461	7.9762	0.3954	-1.2458	-1.2233	4.8505	-6.3696	-4.1991	2.4098	-6.6246	0.333	0.333	0.333	0.333	0.333	0.333	0.333	0.333	0.333	0.333	0.333	0.333	0.333	0.333	0.333	0.333	0.333	0.333	0.333	6.327	1.4342	2.6445	11	79	0.19062035960865	1	0
"80"	11	37	2	-2	-2.81	0	6	-1	1	1.652	-0.9683	-6.1528	-3.0929	-6.5715	1.7266	1.2602	-10.6491	-6.0776	-12.726	0.3682	1.3406	-4.6453	2.5539	-3.3654	4.786	2.2862	-12.6649	0.8622	-3.7417	-2.5766	0.2711	0.3499	0.3063	0.2438	0.2888	0.2462	0.4495	0.2507	0.2774	0.515	0.3538	0.4667	0.3659	0.2165	0.3061	0.4091	0.3058	0.2253	0.4881	6.3359	1.5305	3.1859	11	80	0.501986675098786	0	1
"81"	11	38	2	-1	-1.405	0	5	-1	1	1.88	-2.6276	-6.8102	-3.0839	-4.8174	-2.3964	-5.1759	-1.213	-8.004	1.1706	3.5886	0.4945	-9.7385	-3.1095	-2.3706	0.9281	7.0228	7.3416	7.2504	-1.3673	-5.8114	0.3462	0.4116	0.3054	0.5317	0.3253	0.266	0.3246	0.3516	0.2265	0.3634	0.2233	0.4868	0.301	0.4142	0.3286	0.2065	0.2387	0.4197	0.2599	6.3309	1.5432	3.447	11	81	0.631271776841858	0	1
"82"	11	7	2	4	5.62	1	4	1	1	1.132	6.8828	1.9541	14.3921	7.6203	3.1386	10.117	8.8764	4.985	-0.8603	16.6252	2.8633	4.0755	3.8972	0.2698	3.0064	9.0561	9.4236	8.7606	0.4587	-2.6626	0.333	0.333	0.333	0.333	0.333	0.333	0.333	0.333	0.333	0.333	0.333	0.333	0.333	0.333	0.333	0.333	0.333	0.333	0.333	6.327	1.4153	2.5665	11	82	0.123985979780991	1	0
"83"	11	47	2	1	1.405	1	4	-1	0	1.043	-1.5757	-4.4683	-1.1798	4.6558	9.6406	-4.8579	-8.228	3.2208	1.0506	8.89	-6.9879	1.2969	0.7717	3.5276	8.6023	4.594	5.301	-1.0242	3.6513	1.9163	0.333	0.333	0.333	0.333	0.333	0.333	0.333	0.333	0.333	0.333	0.333	0.333	0.333	0.333	0.333	0.333	0.333	0.333	0.333	6.327	1.5831	2.6437	11	83	0.0421011760186353	0	1
"84"	11	60	2	0	0	1	4	1	1	1.302	-1.4832	4.7414	-1.9854	12.4063	0.5584	0.4129	-2.553	-6.7142	4.5684	1.823	-4.6237	-2.1783	-4.4366	-1.3916	12.4107	-0.5792	0.4755	-2.5116	-3.3886	-3.8692	0.333	0.333	0.333	0.333	0.333	0.333	0.333	0.333	0.333	0.333	0.333	0.333	0.333	0.333	0.333	0.333	0.333	0.333	0.333	6.327	1.5096	2.8193	11	84	0.263901543786378	1	0
"85"	11	57	2	-4	-5.62	1	4	-1	1	1.256	-7.2283	-6.6693	-8.3582	-9.044	-6.3326	-10.2495	4.5081	-3.7978	-10.4487	-4.9402	5.1055	-3.0327	-5.0129	-9.0974	-3.8181	-14.1586	-2.5002	-3.8449	-0.6563	-13.1895	0.333	0.333	0.333	0.333	0.333	0.333	0.333	0.333	0.333	0.333	0.333	0.333	0.333	0.333	0.333	0.333	0.333	0.333	0.333	6.327	1.5258	2.7901	11	85	0.227932068046007	0	1
"86"	11	4	2	0	0	1	6	1	1	1.713	-1.8823	-2.516	5.681	-1.7787	3.3716	6.5497	-2.6426	-7.8207	0.398	-9.7609	5.3014	-5.03	-3.6483	8.899	2.8539	1.6601	2.3709	-0.8628	3.4928	-5.375	0.333	0.333	0.333	0.333	0.333	0.333	0.333	0.333	0.333	0.333	0.333	0.333	0.333	0.333	0.333	0.333	0.333	0.333	0.333	6.327	1.5686	3.2971	11	86	0.538246219341983	1	0
"87"	11	53	2	0	0	0	5	1	1	1.783	4.5213	5.84	-1.9136	2.1988	1.6412	-3.4774	8.2109	-1.5667	0.065	-8.067	2.2933	-2.8985	-1.3042	-0.2142	6.7442	-0.4119	2.3454	-4.3983	-12.9407	3.2999	0.2127	0.4769	0.5107	0.2703	0.4255	0.2271	0.348	0.4417	0.3167	0.4082	0.483	0.3525	0.2105	0.2528	0.2193	0.3572	0.3031	0.2347	0.2813	6.3317	1.7235	3.5167	11	87	0.578297338881003	1	0
"88"	11	29	2	-4	-5.62	1	4	-1	1	1.238	-3.0291	-10.5227	-6.9836	-5.1562	-12.74	-6.2937	-1.4455	-1.1424	-10.4517	-5.2673	-1.6063	-3.5996	-11.1136	0.5604	-3.0406	-5.0661	-16.0857	2.939	-11.0307	-2.5646	0.333	0.333	0.333	0.333	0.333	0.333	0.333	0.333	0.333	0.333	0.333	0.333	0.333	0.333	0.333	0.333	0.333	0.333	0.333	6.327	1.4599	2.7054	11	88	0.213497174262404	0	1
"89"	11	61	2	1	1.405	1	5	1	1	1.496	-1.7278	-2.5337	0.5043	0.7425	-3.3387	2.8819	-0.3094	-11.0171	3.3988	2.2762	11.0771	-0.5958	1.4302	9.0765	9.8459	-0.9744	0.0507	-0.2487	0.9194	5.8029	0.333	0.333	0.333	0.333	0.333	0.333	0.333	0.333	0.333	0.333	0.333	0.333	0.333	0.333	0.333	0.333	0.333	0.333	0.333	6.327	1.6151	3.1139	11	89	0.402794879552285	1	0
"90"	11	24	2	-1	-1.405	0	4	1	0	1.185	-0.9926	-0.2128	-4.3586	0.651	-6.5756	2.975	-0.286	4.9856	-4.0678	0.2014	-4.4402	0.06	5.8466	-2.902	-0.466	-0.444	-16.8426	0.9264	-5.9368	2.1351	0.4126	0.3409	0.3105	0.4573	0.2457	0.3082	0.3917	0.2834	0.3289	0.4882	0.2897	0.3223	0.4856	0.3134	0.2313	0.3147	0.2222	0.3764	0.2132	6.3365	1.5971	2.7857	11	90	0.169742774587095	1	0
"91"	11	2	2	-2	-2.81	1	6	-1	1	1.835	-4.9791	-3.6733	-6.4091	0.0688	-5.7768	-0.7398	-1.5311	-5.698	2.7163	-0.8176	-5.5392	-13.2966	2.215	1.2116	-1.2198	-7.7991	7.9768	-9.9777	3.4444	-6.3552	0.333	0.333	0.333	0.333	0.333	0.333	0.333	0.333	0.333	0.333	0.333	0.333	0.333	0.333	0.333	0.333	0.333	0.333	0.333	6.327	1.6256	3.4695	11	91	0.607044481506534	0	1
"92"	11	45	2	-1	-1.405	1	4	-1	1	1.274	1.7254	-7.9056	-9.4789	-3.3989	-6.0024	5.7722	4.8039	1.9355	3.4169	-4.3676	-6.0952	-6.9686	0.1514	9.407	2.4306	-1.5868	-1.4647	-5.8069	-3.3793	-2.9369	0.333	0.333	0.333	0.333	0.333	0.333	0.333	0.333	0.333	0.333	0.333	0.333	0.333	0.333	0.333	0.333	0.333	0.333	0.333	6.327	1.6402	2.9245	11	92	0.242161557149972	0	1
"93"	11	22	2	-4	-5.62	0	3	-1	1	0.862	-8.0752	-7.6477	-1.2911	-8.9242	-6.9591	-14.5836	-13.6081	-5.4726	-8.0296	-0.1009	-6.2818	-6.9758	2.0815	4.0278	-6.7043	-11.4676	2.9353	-3.2594	-6.9591	-6.7014	0.2	0.4333	0.2723	0.208	0.335	0.2215	0.3776	0.333	0.3046	0.4503	0.2527	0.4076	0.3114	0.4585	0.5305	0.2693	0.4285	0.2199	0.3163	6.3304	1.5296	2.3964	11	93	-0.148500008318444	0	1
"94"	11	33	2	1	1.405	1	6	1	1	1.701	0.3758	-2.3055	3.0126	-0.5969	4.4418	2.6037	-1.788	-0.5965	-1.6847	6.7362	3.1799	0.0377	12.0567	-3.247	2.3401	11.2011	5.4722	-3.0671	-5.1913	-6.109	0.333	0.333	0.333	0.333	0.333	0.333	0.333	0.333	0.333	0.333	0.333	0.333	0.333	0.333	0.333	0.333	0.333	0.333	0.333	6.327	1.7028	3.402	11	94	0.531216313413725	1	0
"95"	11	20	2	2	2.81	1	4	1	1	1.07	4.7544	4.3298	1.9083	2.366	4.9879	-2.3367	4.0016	-0.9858	-3.2381	4.6876	2.1326	4.3294	-2.2401	2.0584	13.8134	11.7178	-5.957	9.8638	0.5504	-2.0859	0.333	0.333	0.333	0.333	0.333	0.333	0.333	0.333	0.333	0.333	0.333	0.333	0.333	0.333	0.333	0.333	0.333	0.333	0.333	6.327	1.409	2.4874	11	95	0.0676586484738149	1	0
"96"	11	32	2	0	0	1	4	1	1	1.189	1.4684	1.5014	4.1067	3.2473	-1.5797	7.6059	-8.3403	5.4274	-8.8418	5.302	-6.0466	-2.7385	-3.7967	-5.4219	5.341	-0.0259	3.4593	-6.5701	2.5651	1.5705	0.333	0.333	0.333	0.333	0.333	0.333	0.333	0.333	0.333	0.333	0.333	0.333	0.333	0.333	0.333	0.333	0.333	0.333	0.333	6.327	1.5838	2.79	11	96	0.173112617708645	1	0
"97"	11	25	2	0	0	0	6	1	0	1.729	0.9936	-1.5536	-4.0196	-6.2336	4.6628	-0.1781	1.4345	8.5661	-2.9632	8.3079	-8.1231	-1.9984	2.443	0.2106	9.4455	-6.7856	-1.3486	1.4667	-5.1736	2.0505	0.2079	0.4589	0.2249	0.5207	0.2892	0.4852	0.2847	0.3134	0.4217	0.2139	0.4555	0.2132	0.472	0.2594	0.225	0.2647	0.3358	0.4191	0.2711	6.3361	1.6464	3.3968	11	97	0.547543206701154	1	0
"98"	11	65	2	-2	-2.81	0	4	-1	1	1.076	-1.4122	-3.7472	-11.2805	-9.4565	3.035	-4.6617	3.5751	-9.7472	-6.494	3.4183	-4.379	3.4263	6.6412	-4.2777	-0.0515	-0.5548	-4.2419	-7.2388	-3.0263	-4.2895	0.2453	0.3565	0.2958	0.3295	0.4886	0.2991	0.2495	0.3176	0.4561	0.3576	0.2918	0.3943	0.4743	0.2374	0.3402	0.2231	0.3862	0.3237	0.2641	6.3308	1.5706	2.6597	11	98	0.0732504617395927	0	1
"99"	11	3	2	-1	-1.405	1	4	1	0	1.294	-0.0658	-1.6076	1.7824	-2.5091	1.6132	-9.3473	2.1801	0.6538	-1.2173	-2.0245	4.3238	3.8236	2.2588	-6.5637	1.5998	-1.1608	-10.6559	-8.4573	-9.7651	5.7881	0.333	0.333	0.333	0.333	0.333	0.333	0.333	0.333	0.333	0.333	0.333	0.333	0.333	0.333	0.333	0.333	0.333	0.333	0.333	6.327	1.5026	2.8113	11	99	0.257738196078709	1	0
"100"	11	39	2	0	0	0	6	1	1	1.526	2.8211	9.5766	-0.6568	0.1179	1.6509	4.5481	-7.6994	-10.9769	4.3654	3.8533	-3.7349	-1.9368	2.5972	0.356	-0.7096	-8.4092	0.0913	3.1588	-3.0352	2.0577	0.2467	0.2052	0.3848	0.2494	0.2832	0.3408	0.3033	0.1999	0.507	0.3596	0.4139	0.4669	0.2032	0.3604	0.458	0.4886	0.3237	0.2796	0.2465	6.3206	1.628	3.1604	11	100	0.422649932862265	1	0
"101"	11	49	2	4	5.62	1	5	1	1	1.464	7.2669	7.8236	-5.2307	3.1979	13.668	6.7423	8.2227	0.3745	6.352	2.3381	15.9117	-0.4845	2.8587	6.779	4.7129	7.9903	5.5321	2.6636	2.3235	13.2549	0.333	0.333	0.333	0.333	0.333	0.333	0.333	0.333	0.333	0.333	0.333	0.333	0.333	0.333	0.333	0.333	0.333	0.333	0.333	6.327	1.6468	3.1144	11	101	0.38117241553912	1	0
"102"	11	51	2	-2	-2.81	0	6	-1	1	1.681	0.2571	-7.0586	-10.3124	-17.0615	0.606	-2.7821	3.306	-1.1309	-1.6241	-1.2733	3.6495	-4.8677	1.6342	-4.4878	1.5829	-7.777	-2.8104	-0.2542	0.1089	-4.0763	0.4403	0.3024	0.3431	0.2286	0.2901	0.3183	0.2856	0.5216	0.2827	0.2434	0.3304	0.362	0.2442	0.5231	0.2701	0.4279	0.398	0.2349	0.2726	6.3196	1.4621	3.1479	11	102	0.519388854426479	0	1
"103"	11	31	2	-1	-1.405	1	6	-1	1	1.684	-2.3745	-8.4327	2.2599	-13.0215	-4.6462	0.2192	-1.6315	0.3319	2.515	-0.791	-5.5579	1.2719	-10.0443	-1.8148	4.7316	0.3439	0.3188	6.2676	3.9567	-3.3136	0.333	0.333	0.333	0.333	0.333	0.333	0.333	0.333	0.333	0.333	0.333	0.333	0.333	0.333	0.333	0.333	0.333	0.333	0.333	6.327	1.5375	3.2353	11	103	0.521171915820135	0	1
"104"	11	46	2	0	0	1	5	1	0	1.423	4.9108	2.8813	-5.5245	-2.0619	-8.9012	-4.5402	0.2909	4.5577	-0.1791	-7.8366	2.6624	0.4395	2.3682	-1.2807	-0.0127	4.875	-8.1539	7.5341	8.1823	-1.1053	0.333	0.333	0.333	0.333	0.333	0.333	0.333	0.333	0.333	0.333	0.333	0.333	0.333	0.333	0.333	0.333	0.333	0.333	0.333	6.327	1.5642	2.9904	11	104	0.352767319107715	1	0
"105"	11	70	2	4	5.62	0	4	1	1	1.092	5.6598	5.2411	9.599	3.2278	6.6624	7.0586	8.6404	5.9389	14.9837	-0.8086	1.2731	13.1569	8.6601	9.0048	-5.9328	-0.9911	4.5719	6.1669	2.2829	9.9763	0.2499	0.3177	0.4171	0.3342	0.4344	0.2342	0.466	0.3676	0.2355	0.3488	0.3931	0.4526	0.2536	0.3316	0.2447	0.2117	0.5079	0.2932	0.2418	6.3356	1.6941	2.7932	11	105	0.0880108773227134	1	0
"106"	11	62	2	2	2.81	1	4	1	1	1.33	-1.5615	6.3294	1.5443	0.8453	8.9732	9.4522	0.9944	-2.4144	-10.9592	9.2364	5.4122	4.3679	-1.3077	4.7485	-1.2038	4.0028	6.4789	3.5649	-0.6727	7.1737	0.333	0.333	0.333	0.333	0.333	0.333	0.333	0.333	0.333	0.333	0.333	0.333	0.333	0.333	0.333	0.333	0.333	0.333	0.333	6.327	1.6944	3.0304	11	106	0.285178942233662	1	0
"107"	11	6	2	2	2.81	1	5	1	1	1.42	-1.1211	4.8655	1.7753	6.2877	5.9053	-1.5358	10.0067	10.097	1.3626	-4.0252	7.4799	3.7575	5.6534	2.6177	3.4285	3.6658	-4.0307	-7.3848	-2.7918	8.1866	0.333	0.333	0.333	0.333	0.333	0.333	0.333	0.333	0.333	0.333	0.333	0.333	0.333	0.333	0.333	0.333	0.333	0.333	0.333	6.327	1.4356	2.8545	11	107	0.350656871613169	1	0
"108"	11	1	2	-4	-5.62	1	5	1	0	1.512	-1.5584	-10.828	-6.5664	-4.2384	-4.0581	1.7643	-3.8113	-5.5692	2.4824	-2.7337	-7.0784	-10.7406	-2.4973	-7.3344	-4.9209	-14.8325	-1.4586	-10.3982	-1.9957	-15.8984	0.333	0.333	0.333	0.333	0.333	0.333	0.333	0.333	0.333	0.333	0.333	0.333	0.333	0.333	0.333	0.333	0.333	0.333	0.333	6.327	1.418	2.929	11	108	0.413433277757341	1	0
"109"	11	30	2	-2	-2.81	1	4	-1	1	1.097	-3.5722	-1.1175	-5.0518	10.8247	-1.8949	-0.0093	-2.7858	-2.0449	4.6542	-10.3961	-7.7755	-1.0189	-7.8175	-5.7003	-1.8567	-5.5082	3.094	-8.7889	-6.9813	-2.0146	0.333	0.333	0.333	0.333	0.333	0.333	0.333	0.333	0.333	0.333	0.333	0.333	0.333	0.333	0.333	0.333	0.333	0.333	0.333	6.327	1.4744	2.5806	11	109	0.0925791812930932	0	1
"110"	11	13	2	2	2.81	0	4	1	1	1.221	1.7114	3.8282	10.3689	1.9758	-1.536	-0.5236	0.8223	1.894	13.2303	-5.8735	-2.4241	6.3941	5.0238	-1.7776	5.7835	-1.0202	3.2206	-0.0494	13.6099	3.3582	0.4406	0.3261	0.2172	0.4128	0.2365	0.2025	0.3352	0.249	0.4081	0.3421	0.4407	0.2844	0.3435	0.2087	0.2531	0.4662	0.3808	0.3131	0.4677	6.3283	1.7121	2.939	11	110	0.199670195128568	1	0
"111"	11	12	2	1	1.405	0	3	1	1	0.987	4.9613	0.939	-2.2502	1.4411	-8.2095	3.8918	-1.5917	7.5142	-6.3352	0.1174	7.7635	-8.4302	4.553	2.3919	8.0968	4.5577	-1.6853	5.5793	4.0499	0.4842	0.272	0.3512	0.4968	0.4195	0.2821	0.3753	0.2822	0.2289	0.3118	0.2549	0.2924	0.4221	0.3179	0.2634	0.4351	0.2672	0.343	0.4312	0.2774	6.3243	1.708	2.7043	11	111	-0.0130852395486555	1	0
"112"	11	15	2	-4	-5.62	1	5	-1	1	1.444	-6.3282	-9.8996	1.1541	-7.5528	1.5638	-2.3216	-2.4382	-9.5206	-7.9504	-5.8197	-6.9502	-15.1526	-11.0189	-14.5798	-5.5137	-9.4175	0.2593	-0.1377	-0.9858	-1.3101	0.333	0.333	0.333	0.333	0.333	0.333	0.333	0.333	0.333	0.333	0.333	0.333	0.333	0.333	0.333	0.333	0.333	0.333	0.333	6.327	1.6789	3.1449	11	112	0.367417040470634	0	1
"113"	11	56	2	4	5.62	0	4	1	1	1.258	3.4817	9.526	5.1783	11.5847	1.0779	4.1863	8.9983	10.2618	6.3535	11.9282	9.995	6.415	6.5272	-1.5092	-6.2363	13.012	8.306	0.9424	0.5753	1.5002	0.2655	0.3547	0.3083	0.4285	0.2569	0.523	0.3475	0.2416	0.2036	0.234	0.2756	0.21	0.4136	0.5003	0.293	0.3859	0.476	0.3818	0.2239	6.3236	1.6826	2.9584	11	113	0.229523158278249	1	0
"114"	11	36	2	-4	-5.62	0	5	-1	1	1.434	-4.4158	-0.809	-7.9956	-5.732	-7.1115	-7.2822	-14.5609	-2.443	-3.6726	1.1313	-5.1768	-17.6412	-5.556	0.6357	-7.16	-2.8315	-11.2341	-8.4778	-3.0532	0.949	0.2214	0.4483	0.2226	0.5323	0.255	0.3006	0.2677	0.4243	0.3348	0.2738	0.4008	0.3236	0.2015	0.3016	0.2272	0.527	0.4478	0.2035	0.4152	6.329	1.4328	2.8848	11	114	0.360467742177429	0	1
"115"	11	18	2	0	0	1	7	1	0	2.171	3.8328	-9.7636	3.5064	-2.3336	-8.2412	1.189	6.8016	-5.9942	-2.073	3.4576	6.6307	-5.9059	4.7908	0.435	-1.4486	5.2311	-5.0127	4.2819	0.5237	0.9994	0.333	0.333	0.333	0.333	0.333	0.333	0.333	0.333	0.333	0.333	0.333	0.333	0.333	0.333	0.333	0.333	0.333	0.333	0.333	6.327	1.6947	3.8714	11	115	0.775187890896155	1	0
"116"	11	67	2	0	0	0	8	-1	0	2.546	-4.4899	6.0818	1.7093	-5.6942	-6.7055	-4.1284	5.4709	-2.4897	1.0221	-1.2045	12.1669	4.5684	-3.1556	2.7137	0.0557	0.6513	-4.2709	3.2722	1.4343	-7.4665	0.2799	0.4768	0.3518	0.208	0.2665	0.3661	0.3204	0.3591	0.2557	0.3851	0.2557	0.2014	0.4679	0.3879	0.3029	0.4985	0.3831	0.3197	0.2421	6.3285	1.6584	4.2135	11	116	0.934523500135215	0	1
"117"	11	28	2	4	5.62	0	6	1	1	2.072	6.0585	-3.1253	9.5059	13.4496	7.6864	4.0875	-0.7431	13.8238	7.5833	6.3973	-1.0279	14.3169	2.3112	10.3709	6.0057	5.042	0.5396	5.1096	1.3999	4.9523	0.2827	0.5054	0.4316	0.3667	0.2067	0.4007	0.4486	0.2306	0.2858	0.4586	0.2271	0.452	0.2908	0.2357	0.4616	0.2343	0.2964	0.2348	0.285	6.3351	1.5608	3.6393	11	117	0.728514324397237	1	0
"118"	11	9	2	-2	-2.81	0	10	1	0	2.762	1.1565	-2.0745	-10.5209	-8.6326	-8.4159	-3.7129	-0.8105	4.3588	1.3134	-4.5649	-4.2438	-13.1184	-0.0898	-5.1594	-3.9147	-2.9861	1.304	8.5682	-0.5969	-4.2784	0.4853	0.2034	0.2614	0.4481	0.3425	0.28	0.2119	0.2369	0.2623	0.3011	0.4999	0.4375	0.3171	0.2417	0.2748	0.4478	0.4747	0.2612	0.3325	6.3201	1.5053	4.2791	11	118	1.0159550549871	1	0
"119"	11	43	2	-4	-5.62	1	7	-1	1	2.265	-8.3198	3.3528	-7.5935	-15.4584	-9.3358	0.2811	-7.6672	-9.3669	-2.4944	4.8571	-11.6527	0.0653	-8.8967	-5.5981	-7.0377	-5.3832	-7.3634	-6.9187	-2.5385	-6.8433	0.333	0.333	0.333	0.333	0.333	0.333	0.333	0.333	0.333	0.333	0.333	0.333	0.333	0.333	0.333	0.333	0.333	0.333	0.333	6.327	1.7292	3.9991	11	119	0.817574758934997	0	1
"120"	11	52	2	-1	-1.405	0	5	-1	1	1.329	-2.1974	-9.7899	-0.6513	-0.2603	-6.3855	-1.9198	-0.2546	14.8401	3.2588	-3.616	1.1159	-2.7745	-3.1344	1.6119	-7.1926	-3.1109	2.4549	-3.9073	-5.5752	-1.658	0.2056	0.2485	0.3566	0.515	0.3474	0.491	0.2979	0.2034	0.285	0.37	0.5144	0.3241	0.2149	0.419	0.2882	0.2426	0.5042	0.2703	0.2229	6.3212	1.4964	2.8298	11	120	0.284426779731108	0	1
"121"	11	14	2	4	5.62	0	5	1	1	1.675	3.227	-0.2443	1.3275	1.1307	6.386	7.1744	14.0668	10.9574	2.3802	2.4044	4.1648	-2.8007	15.8798	12.8235	8.4419	0.6575	4.2671	10.2593	4.49	5.2189	0.4871	0.2298	0.4489	0.2195	0.3689	0.3238	0.4357	0.2668	0.4432	0.2911	0.4632	0.2279	0.2657	0.3392	0.2022	0.4679	0.2652	0.2292	0.3472	6.3226	1.7013	3.3753	11	121	0.51581316527703	1	0
"122"	11	54	2	1	1.405	0	9	1	1	3.053	-2.3246	-1.5732	10.9139	-1.3594	6.8129	5.5572	6.2899	0.7898	6.5234	-4.3639	-1.2566	8.1822	0.1341	-9.054	3.4082	-0.917	6.6622	-0.7548	-1.689	-2.9275	0.2129	0.418	0.5203	0.4096	0.2155	0.4396	0.2278	0.3191	0.4304	0.2716	0.3166	0.2325	0.3536	0.2207	0.4315	0.4801	0.2025	0.3394	0.2929	6.3346	1.5335	4.587	11	122	1.11612471375274	1	0
"123"	11	58	2	-2	-2.81	1	7	-1	1	2.297	-1.5969	0.968	-0.8125	-11.7228	-6.4578	-0.7892	-1.6704	2.683	1.4312	-13.1444	2.6292	-7.8454	-3.8712	-2.7506	0.4429	6.562	-6.047	-8.4366	-1.9938	-2.7539	0.333	0.333	0.333	0.333	0.333	0.333	0.333	0.333	0.333	0.333	0.333	0.333	0.333	0.333	0.333	0.333	0.333	0.333	0.333	6.327	1.5395	3.8317	11	123	0.831603923706961	0	1
"124"	11	44	2	-2	-2.81	1	3	-1	1	0.961	-4.8742	-5.8984	-4.1285	-1.6812	-6.9556	-5.5587	-10.9504	-3.1202	-7.9388	-1.5543	-3.5013	-3.6919	-7.759	8.7241	3.5831	0.0991	-9.0039	5.7779	0.2598	1.7706	0.333	0.333	0.333	0.333	0.333	0.333	0.333	0.333	0.333	0.333	0.333	0.333	0.333	0.333	0.333	0.333	0.333	0.333	0.333	6.327	1.5804	2.5617	11	124	-0.0397808700118446	0	1
"125"	11	27	2	2	2.81	0	4	1	1	1.057	3.7892	1.0504	-2.4566	-0.3167	-4.7531	5.0376	-1.7087	6.2387	11.3722	4.4148	2.8941	6.1323	1.2191	-3.1387	0.151	1.8053	16.6825	3.1139	3.888	0.9724	0.2771	0.3952	0.3357	0.2083	0.2565	0.4512	0.2015	0.3536	0.2339	0.2087	0.2466	0.5212	0.4793	0.207	0.2744	0.4857	0.2704	0.4029	0.5086	6.3176	1.6141	2.6913	11	125	0.0554347068881005	1	0
"126"	11	66	2	-1	-1.405	0	7	1	0	2.018	0.8999	4.3328	-3.866	6.5091	-9.783	-0.8382	-8.2877	-4.6462	-4.6559	4.2518	0.8226	-6.2678	3.8303	-0.5874	-2.6744	-4.5181	-5.232	-6.6849	6.3562	4.3125	0.2392	0.5097	0.2913	0.2234	0.4501	0.2253	0.4305	0.2466	0.3256	0.297	0.2495	0.3949	0.5097	0.4176	0.2879	0.207	0.3494	0.2551	0.4218	6.3318	1.5185	3.5526	11	126	0.702106921931417	1	0
"127"	11	55	2	2	2.81	0	7	-1	0	2.525	-2.0534	-0.2507	2.6192	-4.3909	4.4562	0.4458	-5.2635	2.8216	1.3981	0.175	7.7104	-2.5087	11.3775	0.7528	12.0479	6.1029	8.8589	3.8531	9.2551	0.388	0.4019	0.3531	0.3934	0.4836	0.4186	0.2765	0.2287	0.2717	0.2398	0.3888	0.2148	0.3462	0.3717	0.2964	0.2097	0.3309	0.2137	0.5116	0.3724	6.3235	1.6161	4.1588	11	127	0.926241062727323	0	1
"128"	11	69	2	2	2.81	0	5	1	1	1.364	6.5741	-2.8054	9.9644	1.0465	-2.2529	6.3712	7.2451	-3.3896	11.6805	0.2543	3.0599	-0.5098	1.1538	5.5891	3.3162	2.9916	7.0151	-5.5711	-3.348	8.9298	0.246	0.3481	0.403	0.3049	0.27	0.2151	0.4538	0.2092	0.3169	0.4188	0.2024	0.4662	0.2946	0.4256	0.3578	0.2	0.3564	0.4013	0.4463	6.3366	1.5665	2.948	11	128	0.31042155942127	1	0
"129"	11	64	2	-4	-5.62	0	7	-1	1	1.984	-8.3516	-0.3955	-7.5159	-9.5061	-5.2113	-1.897	-8.2529	-12.4055	-4.2915	-3.3277	-10.1423	-15.1729	5.93	-2.959	-12.0399	-0.4993	-2.7401	-5.7269	-4.2705	-3.9069	0.3489	0.212	0.2918	0.2338	0.4794	0.4082	0.2692	0.5209	0.246	0.4553	0.3202	0.4369	0.3206	0.2391	0.4329	0.3833	0.2599	0.2211	0.2552	6.3349	1.7093	3.7012	11	129	0.685115008862681	0	1
"130"	11	23	2	-2	-2.81	0	3	-1	1	1.257	-3.173	-1.989	-3.0812	1.9008	-0.863	-12.1769	0.5946	-3.1254	-13.8797	-12.2538	-0.9012	0.876	-0.8872	2.4257	-6.4663	3.6631	0.4973	-3.1207	-4.4867	-1.169	0.4527	0.4954	0.3899	0.3294	0.2987	0.2273	0.3067	0.2449	0.2778	0.2316	0.2017	0.4138	0.215	0.2494	0.4258	0.2561	0.4387	0.5034	0.374	6.3324	1.5086	2.7742	11	130	0.22872792960811	0	1
"131"	11	34	2	2	2.81	1	5	1	1	1.658	5.7519	-8.4871	2.5264	4.8064	9.8115	1.4273	6.6265	-2.9814	-0.1878	3.0317	10.6959	-2.427	-4.1271	7.1347	10.8524	1.711	2.6876	4.8671	-1.3479	3.5357	0.333	0.333	0.333	0.333	0.333	0.333	0.333	0.333	0.333	0.333	0.333	0.333	0.333	0.333	0.333	0.333	0.333	0.333	0.333	6.327	1.487	3.1587	11	131	0.505612056713103	1	0
"132"	11	68	2	1	1.405	0	3	1	1	0.822	4.4791	6.7071	-2.7662	0.7724	1.997	-0.0419	4.4824	-5.8651	8.9405	-4.9492	5.3875	9.6698	4.7783	3.9511	-1.1954	0.7223	-0.7723	-6.5494	5.5832	-6.9613	0.3259	0.2431	0.5044	0.2174	0.27	0.2976	0.3941	0.3656	0.3311	0.228	0.4951	0.5207	0.2587	0.4831	0.2089	0.2925	0.2628	0.358	0.2768	6.3339	1.5854	2.4058	11	132	-0.196014883925957	1	0
"133"	11	19	2	1	1.405	1	5	1	1	1.334	3.2112	-8.5836	-5.6325	4.9355	6.9087	-3.5896	5.2938	-4.3083	-1.2033	-3.1467	-0.2238	0.3178	10.6652	5.6655	2.129	4.6227	7.2521	5.6804	-1.1491	-1.6162	0.333	0.333	0.333	0.333	0.333	0.333	0.333	0.333	0.333	0.333	0.333	0.333	0.333	0.333	0.333	0.333	0.333	0.333	0.333	6.327	1.4721	2.8177	11	133	0.288181947493432	1	0
"134"	11	63	2	4	5.62	1	3	1	1	0.805	5.062	12.3407	2.3339	4.4785	-0.6393	0.3616	9.099	9.5151	-2.2646	0.6909	-0.3292	7.6041	13.146	0.8862	6.6368	15.6224	8.5341	2.0417	8.638	6.9427	0.333	0.333	0.333	0.333	0.333	0.333	0.333	0.333	0.333	0.333	0.333	0.333	0.333	0.333	0.333	0.333	0.333	0.333	0.333	6.327	1.7019	2.5058	11	134	-0.216913001563574	1	0
"135"	11	21	2	4	5.62	1	4	1	1	1.111	9.1985	4.3271	16.9636	4.1546	5.3813	-0.8873	5.8863	9.8673	0.5787	6.7974	9.9593	2.4261	10.3841	6.6601	-5.8355	11.7013	4.241	6.1965	5.2563	0.4336	0.333	0.333	0.333	0.333	0.333	0.333	0.333	0.333	0.333	0.333	0.333	0.333	0.333	0.333	0.333	0.333	0.333	0.333	0.333	6.327	1.4573	2.5784	11	135	0.105260510657493	1	0
"136"	11	10	2	-1	-1.405	0	5	1	0	1.48	-1.568	8.1286	-11.4907	1.6428	4.3325	1.0667	-6.497	-9.6819	-3.8931	4.0796	-0.5284	-5.3064	6.4608	0.8742	-0.4669	-3.4974	-1.3848	-0.9171	-5.0363	-2.9525	0.417	0.2822	0.3699	0.234	0.3243	0.2782	0.3923	0.284	0.4221	0.2102	0.503	0.3227	0.2588	0.3166	0.3938	0.308	0.3913	0.2428	0.3805	6.3318	1.6262	3.1139	11	136	0.392042087776024	1	0
"137"	11	50	2	-4	-5.62	0	5	-1	1	1.3	-4.7048	-3.1999	-6.9762	-8.2047	-8.4854	-2.1157	5.8243	-9.8359	1.5582	-4.3973	-10.1128	-10.098	-9.8415	-6.6573	3.3895	-6.7806	-14.0158	-5.734	-8.6397	-3.2623	0.3642	0.2643	0.2223	0.2632	0.2288	0.4785	0.279	0.3633	0.4167	0.2046	0.4163	0.2045	0.3517	0.487	0.3871	0.4586	0.2776	0.405	0.2598	6.3325	1.7027	3.001	11	137	0.262364264467491	0	1
"138"	11	5	2	1	1.405	1	5	1	1	1.393	-0.4936	6.5447	0.2837	1.9187	-8.4141	8.0112	5.9734	4.7041	-1.432	10.2922	4.036	0.2248	4.9144	-1.0695	3.1109	4.1408	-0.9755	-7.1198	-0.9306	-5.5567	0.333	0.333	0.333	0.333	0.333	0.333	0.333	0.333	0.333	0.333	0.333	0.333	0.333	0.333	0.333	0.333	0.333	0.333	0.333	6.327	1.4328	2.8269	11	138	0.331459694797669	1	0
"139"	11	26	2	1	1.405	0	5	1	1	1.45	0.0547	0.2744	2.0117	-5.1387	6.343	-4.6494	-3.6511	4.2337	2.199	16.1897	5.5807	4.0246	0.6879	-4.8825	-0.7076	-3.2332	5.3386	2.3026	0.9169	0.279	0.2006	0.4513	0.2691	0.3378	0.2257	0.3651	0.3332	0.4518	0.2587	0.4258	0.3958	0.2194	0.3834	0.2215	0.4442	0.2299	0.5107	0.232	0.3727	6.3288	1.707	3.1672	11	139	0.371563556432483	1	0
"140"	11	41	2	2	2.81	0	7	1	1	2.185	5.5298	-0.1746	-0.6688	3.772	0.3039	2.7124	12.9363	-3.0172	9.3214	4.735	0.355	-3.3577	3.8594	-1.3967	11.0795	6.8911	-0.5845	-5.1167	7.5589	2.6524	0.2504	0.3245	0.3989	0.207	0.427	0.4879	0.2972	0.2608	0.4405	0.2646	0.4958	0.2854	0.3505	0.5283	0.2898	0.2629	0.2081	0.3343	0.2215	6.3353	1.4854	3.6857	11	140	0.781615828547554	1	0
"141"	11	63	3	4	5.62	1	5	1	1	1.43	8.1128	-1.2907	7.9181	8.565	-4.1415	7.8997	1.7858	5.858	9.472	10.0799	5.7655	6.283	5.1143	3.0903	14.247	-3.6633	2.9396	13.323	8.4286	3.1089	0.333	0.333	0.333	0.333	0.333	0.333	0.333	0.333	0.333	0.333	0.333	0.333	0.333	0.333	0.333	0.333	0.333	0.333	0.333	6.327	1.5048	2.9477	11	141	0.357674444271816	1	0
"142"	11	66	3	-1	-1.405	0	8	-1	1	2.346	-2.7282	-4.4958	-4.5018	8.6297	-5.487	2.7118	-6.55	-5.2915	-1.5298	-2.1796	-0.7225	-1.3593	-0.2488	6.6019	-3.5943	9.4632	-1.7129	-0.7101	-6.2972	-8.4664	0.3284	0.4652	0.2078	0.2359	0.2651	0.3029	0.3402	0.4739	0.3525	0.3091	0.3441	0.2445	0.4303	0.2879	0.3232	0.2488	0.3939	0.2805	0.4938	6.3278	1.592	3.9463	11	142	0.852711750231284	0	1
"143"	11	50	3	-4	-5.62	0	5	-1	1	1.732	-2.0497	-2.8964	-4.9511	-4.9931	-2.0365	-5.3063	-14.3548	-6.6677	-1.6159	1.2301	-0.8883	-8.5454	-7.4764	-8.5733	-18.2734	-2.1892	-10.288	-9.1602	-5.9267	2.0491	0.3382	0.2498	0.4149	0.4927	0.357	0.2351	0.3031	0.4097	0.294	0.392	0.4219	0.3866	0.2866	0.2022	0.3968	0.2414	0.3198	0.2217	0.3681	6.3315	1.5435	3.2824	11	143	0.549276810140243	0	1
"144"	11	40	3	1	1.405	0	5	1	1	1.611	2.0857	-5.7197	1.3366	-4.2649	4.0906	0.5794	2.442	-3.0598	5.4315	11.3105	-1.9697	0.0381	-3.3214	9.1519	-7.0584	1.1933	2.4788	8.2122	-2.1993	6.4535	0.3483	0.3079	0.3632	0.2899	0.4562	0.3502	0.5285	0.5018	0.2887	0.217	0.3139	0.5279	0.28	0.233	0.3175	0.2172	0.2475	0.3312	0.2022	6.3219	1.4348	3.0619	11	144	0.476855104194837	1	0
"145"	11	19	3	1	1.405	1	4	1	1	1.296	-0.4446	-5.3229	7.5977	-5.9123	9.6051	5.6373	-1.688	1.3444	5.1382	-1.5922	6.2107	-0.5749	3.4823	2.419	-2.7457	-5.4947	4.6821	-6.5605	6.9302	5.1667	0.333	0.333	0.333	0.333	0.333	0.333	0.333	0.333	0.333	0.333	0.333	0.333	0.333	0.333	0.333	0.333	0.333	0.333	0.333	6.327	1.4963	2.7965	11	145	0.259282597930083	1	0
"146"	11	52	3	-1	-1.405	0	7	-1	1	2.201	-4.6304	14.8579	5.2498	-7.6668	-5.1374	-4.2482	0.8971	-1.5865	-2.3068	-4.436	-2.6456	-0.2524	-4.9808	-0.6455	3.6402	-3.1357	0.1648	-1.8594	-1.8376	-6.9375	0.2917	0.2173	0.2843	0.5199	0.249	0.2779	0.4556	0.5133	0.323	0.2137	0.3404	0.2608	0.3092	0.2696	0.4534	0.5044	0.2743	0.357	0.2115	6.3264	1.5609	3.7683	11	146	0.788911802544325	0	1
"147"	11	41	3	2	2.81	0	3	1	1	0.841	2.5349	1.9788	-0.5243	6.9885	-1.2572	9.1017	4.8789	-6.1915	-0.9996	9.5193	-1.1291	0.9397	9.3863	-1.1992	11.7432	6.8875	3.5693	-0.5561	6.3412	-4.3805	0.2669	0.3719	0.418	0.2687	0.4737	0.2255	0.4193	0.2252	0.2655	0.3625	0.4104	0.2702	0.4539	0.2547	0.3775	0.3164	0.2585	0.3156	0.3725	6.3267	1.443	2.2919	11	147	-0.173163619009189	1	0
"148"	11	60	3	0	0	1	4	-1	1	1.241	-2.4759	1.5082	-2.9008	-3.8662	3.168	1.6426	14.1303	3.5721	-1.9875	-2.725	-1.3355	5.1767	-0.5303	1.554	4.2112	-10.2283	-0.1348	0.5593	-7.2376	-1.5378	0.333	0.333	0.333	0.333	0.333	0.333	0.333	0.333	0.333	0.333	0.333	0.333	0.333	0.333	0.333	0.333	0.333	0.333	0.333	6.327	1.6441	2.8918	11	148	0.21591750622247	0	1
"149"	11	42	3	4	5.62	0	4	1	1	0.988	9.3119	-0.7116	3.4996	6.8	-1.119	7.1441	-1.7786	10.1745	-1.1567	0.5898	6.4156	3.9293	12.8872	4.8385	15.1892	6.0995	8.5187	2.0569	12.3683	6.6073	0.213	0.2929	0.3394	0.4208	0.3103	0.2212	0.39	0.5295	0.3012	0.3383	0.3009	0.3307	0.37	0.5099	0.269	0.204	0.2375	0.474	0.2817	6.3343	1.4943	2.4886	11	149	-0.0120725812342692	1	0
"150"	11	27	3	2	2.81	0	3	1	1	0.851	5.1772	7.6873	3.2551	9.1901	-2.1264	2.3806	-8.2885	5.563	6.0229	7.5353	-4.2371	-1.7241	-3.4779	4.1356	-0.2195	0.9648	8.9483	9.969	-0.3644	5.3748	0.2505	0.3301	0.3564	0.4048	0.2261	0.4548	0.345	0.4342	0.3364	0.2779	0.3161	0.2352	0.3394	0.3059	0.4861	0.2961	0.261	0.3684	0.3064	6.3309	1.6134	2.4686	11	150	-0.161343150408763	1	0
"151"	11	34	3	2	2.81	1	7	1	1	2.036	5.0708	-2.2458	-1.073	4.6545	-5.0238	-3.4518	0.6951	4.6669	1.6675	1.4036	5.3239	12.4642	-1.5352	4.7814	12.2322	-1.4991	-0.2689	11.9996	2.8867	4.1439	0.333	0.333	0.333	0.333	0.333	0.333	0.333	0.333	0.333	0.333	0.333	0.333	0.333	0.333	0.333	0.333	0.333	0.333	0.333	6.327	1.6165	3.6698	11	151	0.710987098688276	1	0
"152"	11	56	3	4	5.62	0	2	1	1	0.725	8.4237	8.2421	6.2682	6.3689	3.3181	-3.9433	1.3233	8.0464	7.815	1.9769	-1.7894	2.4292	16.241	1.683	4.044	15.727	4.3904	3.2562	6.3353	11.3287	0.2971	0.5124	0.4188	0.242	0.3553	0.504	0.319	0.2398	0.3615	0.314	0.2212	0.3074	0.2074	0.4394	0.3578	0.4081	0.2225	0.3668	0.2382	6.3326	1.4875	2.226	11	152	-0.321583624127462	1	0
"153"	11	6	3	2	2.81	1	3	1	1	0.848	5.4769	2.136	5.8927	-2.2681	2.6686	-0.1734	0.9356	-7.2135	2.6916	-0.7463	7.5333	3.8465	6.287	8.4059	-3.4981	-5.2086	7.4334	5.2958	5.5542	12.1421	0.333	0.333	0.333	0.333	0.333	0.333	0.333	0.333	0.333	0.333	0.333	0.333	0.333	0.333	0.333	0.333	0.333	0.333	0.333	6.327	1.6518	2.5155	11	153	-0.164874643190234	1	0
"154"	11	13	3	2	2.81	0	3	1	1	0.784	6.8628	2.4304	2.0389	1.0086	3.5787	3.8865	6.5471	-0.3156	13.7366	-0.3704	-4.9911	5.5283	0.6617	10.4256	5.7183	-7.4627	-0.2874	6.6203	-0.8654	0.5854	0.2599	0.2168	0.447	0.2844	0.5272	0.3321	0.3071	0.2213	0.4927	0.2901	0.2288	0.4756	0.3257	0.4073	0.2226	0.2588	0.3009	0.524	0.2006	6.3229	1.4845	2.2848	11	154	-0.243346258631729	1	0
"155"	11	45	3	-1	-1.405	1	3	-1	1	0.923	-2.1036	-3.2922	-3.5483	-0.5214	-12.0378	0.5422	-7.0441	-7.7413	4.1768	6.4575	-1.7898	1.0413	-5.948	-0.8083	1.8789	-4.97	0.3458	1.8581	9.3059	-5.2728	0.333	0.333	0.333	0.333	0.333	0.333	0.333	0.333	0.333	0.333	0.333	0.333	0.333	0.333	0.333	0.333	0.333	0.333	0.333	6.327	1.6205	2.5573	11	155	-0.0801260444792849	0	1
"156"	11	18	3	0	0	1	3	1	1	0.913	0.1322	8.3089	-6.1925	-4.0715	10.4122	-7.762	-0.5173	-7.0805	0.4214	5.7683	-6.2951	1.6224	1.0051	-2.0345	-0.8458	-0.0362	7.4854	0.5737	-0.2169	-1.5875	0.333	0.333	0.333	0.333	0.333	0.333	0.333	0.333	0.333	0.333	0.333	0.333	0.333	0.333	0.333	0.333	0.333	0.333	0.333	6.327	1.6021	2.5308	11	156	-0.0910193983871685	1	0
"157"	11	64	3	-4	-5.62	0	4	-1	1	0.765	-3.6505	-4.1341	-3.9358	-10.3223	-13.0369	-14.798	-6.7688	-12.4607	-2.7067	-4.3193	5.4593	-5.0439	-5.3104	-5.1061	-5.6728	-5.3112	-6.9933	-3.4886	4.4395	-7.7454	0.2165	0.3282	0.2153	0.481	0.2069	0.2832	0.345	0.2425	0.3137	0.4527	0.371	0.2	0.3324	0.4573	0.4261	0.2786	0.5036	0.2429	0.4365	6.3333	1.5226	2.2988	11	157	-0.267879445155601	0	1
"158"	11	16	3	-2	-2.81	1	4	-1	1	1.219	-2.9714	0.9078	-9.048	-1.2682	-2.5735	1.6506	-3.3708	-8.8763	-3.4885	1.1417	-0.2773	7.135	-6.9938	-4.5196	-5.8749	-13.2545	-2.7437	6.3912	-2.4849	-4.0391	0.333	0.333	0.333	0.333	0.333	0.333	0.333	0.333	0.333	0.333	0.333	0.333	0.333	0.333	0.333	0.333	0.333	0.333	0.333	6.327	1.6156	2.8362	11	158	0.198030850499135	0	1
"159"	11	3	3	-1	-1.405	1	4	-1	1	1.305	-1.897	-7.4044	0.629	-3.1314	-4.7449	-10.2564	2.2169	3.7641	-2.4928	-7.6447	8.3651	-0.0425	1.8777	3.4087	5.1237	-0.5967	-6.1692	-9.7443	2.2142	-1.733	0.333	0.333	0.333	0.333	0.333	0.333	0.333	0.333	0.333	0.333	0.333	0.333	0.333	0.333	0.333	0.333	0.333	0.333	0.333	6.327	1.5266	2.8396	11	159	0.266203040774657	0	1
"160"	11	46	3	0	0	1	4	-1	1	1.289	-4.3576	-7.4451	1.4241	-3.9803	5.7034	1.2375	1.3053	-1.6194	7.2828	6.8005	-8.0747	-3.0628	3.8744	-2.3537	-6.3224	-0.4618	7.1824	6.9187	-1.8817	-2.9171	0.333	0.333	0.333	0.333	0.333	0.333	0.333	0.333	0.333	0.333	0.333	0.333	0.333	0.333	0.333	0.333	0.333	0.333	0.333	6.327	1.5537	2.856	11	160	0.25386672395705	0	1
"161"	11	55	3	2	2.81	0	8	1	1	2.235	-0.9725	3.8332	7.6781	-7.9916	-1.6469	-0.2669	-6.3908	0.8713	5.3859	2.646	5.2473	5.8879	4.041	6.9193	2.824	3.0099	-1.935	9.9686	11.5502	6.5773	0.4735	0.2334	0.2059	0.3898	0.4182	0.2146	0.2538	0.4946	0.3157	0.2403	0.3352	0.2919	0.2003	0.4217	0.3222	0.4934	0.214	0.3681	0.4436	6.3302	1.6242	3.8694	11	161	0.804241228065532	1	0
"162"	11	48	3	2	2.81	1	4	1	1	1.278	0.0597	0.9594	5.7569	3.8793	-4.3648	-1.0169	18.4448	-0.1626	1.6866	4.0981	0.4189	1.8473	4.1078	-0.6217	7.2312	0.0183	-2.6888	1.0128	9.5075	6.3018	0.333	0.333	0.333	0.333	0.333	0.333	0.333	0.333	0.333	0.333	0.333	0.333	0.333	0.333	0.333	0.333	0.333	0.333	0.333	6.327	1.7318	3.0121	11	162	0.245296355955343	1	0
"163"	11	21	3	4	5.62	1	5	1	1	1.398	1.314	2.7022	6.8617	3.5274	5.4026	13.504	4.8294	2.6276	6.2257	9.4532	10.3432	9.4909	-5.8061	9.3668	-2.6038	5.3973	11.1241	8.3367	10.4729	-1.1595	0.333	0.333	0.333	0.333	0.333	0.333	0.333	0.333	0.333	0.333	0.333	0.333	0.333	0.333	0.333	0.333	0.333	0.333	0.333	6.327	1.6296	3.0317	11	163	0.335042643811618	1	0
"164"	11	43	3	-4	-5.62	1	7	-1	1	2.003	-10.347	-17.0234	-5.3387	-5.9688	-0.2819	-0.5933	0.0418	-4.7233	-9.7618	-10.1447	-0.1605	-2.5712	-6.3065	-13.9874	-9.0585	-6.9159	0.8736	-4.1783	-5.3527	0.4303	0.333	0.333	0.333	0.333	0.333	0.333	0.333	0.333	0.333	0.333	0.333	0.333	0.333	0.333	0.333	0.333	0.333	0.333	0.333	6.327	1.4168	3.4205	11	164	0.694646056683681	0	1
"165"	11	57	3	-4	-5.62	1	5	1	0	1.583	-2.2957	-1.7211	-0.7625	-13.8725	-4.027	1.8321	-4.2617	2.4275	-2.2372	-9.2783	-7.3332	-16.7507	-8.0832	-6.4891	-5.2472	-3.0754	-12.659	-2.3759	-5.9267	-9.8072	0.333	0.333	0.333	0.333	0.333	0.333	0.333	0.333	0.333	0.333	0.333	0.333	0.333	0.333	0.333	0.333	0.333	0.333	0.333	6.327	1.4523	3.0337	11	165	0.459321780898875	1	0
"166"	11	10	3	-1	-1.405	0	6	1	0	1.498	1.4246	-5.4822	10.0958	-4.0037	-8.0577	-2.2035	0.7833	-4.962	-3.5993	-8.5624	-6.6025	-7.5122	-4.0369	0.7931	-1.3646	-1.0935	4.6166	2.6024	4.3467	3.6441	0.2643	0.2028	0.241	0.4064	0.3295	0.2194	0.419	0.4456	0.4069	0.2829	0.4866	0.3506	0.3971	0.2986	0.2148	0.4284	0.2907	0.2157	0.4213	6.3214	1.4716	2.9656	11	166	0.404130885095028	1	0
"167"	11	4	3	0	0	1	8	1	1	2.399	-1.5623	-8.6435	5.7591	0.2821	-1.1444	5.9026	5.1377	5.7355	6.6576	1.7824	4.7875	-1.0195	-9.4287	-1.8823	3.9127	-1.0058	0.0117	-6.0653	-1.9781	-6.936	0.333	0.333	0.333	0.333	0.333	0.333	0.333	0.333	0.333	0.333	0.333	0.333	0.333	0.333	0.333	0.333	0.333	0.333	0.333	6.327	1.4353	3.8497	11	167	0.875051983857558	1	0
"168"	11	5	3	1	1.405	1	5	1	1	1.506	4.6518	1.2774	4.8793	-2.575	2.9559	-10.5515	0.1267	-2.362	6.7601	4.2918	8.4587	3.974	6.261	8.5467	4.6601	-5.2681	-1.0272	1.9738	-4.34	-3.8139	0.333	0.333	0.333	0.333	0.333	0.333	0.333	0.333	0.333	0.333	0.333	0.333	0.333	0.333	0.333	0.333	0.333	0.333	0.333	6.327	1.7262	3.2402	11	168	0.409457129377702	1	0
"169"	11	24	3	-1	-1.405	0	7	1	0	2.156	-4.6101	-7.1411	8.5181	4.8844	-7.0859	-3.2337	6.9069	1.8464	-9.1088	-7.0079	-3.3665	-2.2288	-0.0392	-3.1655	2.9571	1.4902	-5.2888	-4.4457	-0.2312	2.965	0.2647	0.2915	0.4838	0.2397	0.5283	0.3046	0.218	0.4811	0.3405	0.3764	0.2234	0.4247	0.2699	0.3846	0.2297	0.288	0.2111	0.4352	0.3224	6.3174	1.6643	3.84	11	169	0.768254653046751	1	0
"170"	11	31	3	-1	-1.405	1	7	1	0	2.277	-5.339	2.0024	-12.4456	10.355	2.8957	-7.565	-3.4542	-3.2692	0.321	0.2076	1.6328	-7.8666	2.6366	1.3135	2.2286	-1.4081	-1.3474	-4.7129	-2.9513	-1.4998	0.333	0.333	0.333	0.333	0.333	0.333	0.333	0.333	0.333	0.333	0.333	0.333	0.333	0.333	0.333	0.333	0.333	0.333	0.333	6.327	1.7111	3.9948	11	170	0.822858787081603	1	0
"171"	11	36	3	-4	-5.62	0	10	1	0	3.521	-2.6089	-6.7912	-6.8232	-0.2016	-6.3852	-3.0151	-0.4714	-3.6152	-4.7029	-1.3422	-0.7191	-11.242	-8.1776	-9.6444	-9.0578	0.6677	-14.0228	1.6818	-12.1723	-14.0674	0.2796	0.2259	0.5277	0.3682	0.3109	0.2384	0.4294	0.4607	0.2838	0.4127	0.282	0.2209	0.413	0.379	0.308	0.2259	0.2733	0.3098	0.3782	6.3274	1.6957	5.2216	11	171	1.25874504017292	1	0
"172"	11	49	3	4	5.62	1	5	1	1	1.434	6.5862	-0.8103	-1.7697	6.6243	14.5505	8.7147	12.2707	8.0995	6.285	0.7681	6.3247	2.069	3.0991	0.6894	4.4139	-1.3054	14.782	11.8102	6.2278	2.9533	0.333	0.333	0.333	0.333	0.333	0.333	0.333	0.333	0.333	0.333	0.333	0.333	0.333	0.333	0.333	0.333	0.333	0.333	0.333	6.327	1.4057	2.8515	11	172	0.360467742177429	1	0
"173"	11	69	3	2	2.81	0	7	1	1	1.963	-1.42	4.273	1.5017	13.1869	7.5883	5.7339	0.4337	1.7861	-0.2536	-9.7335	2.5425	3.424	5.0217	3.2894	-4.0356	4.0938	0.4392	10.5664	1.5885	5.8935	0.2428	0.3687	0.3976	0.3157	0.2488	0.2745	0.3405	0.2998	0.3271	0.2609	0.3908	0.3614	0.2926	0.3708	0.3156	0.3839	0.532	0.2419	0.3645	6.3298	1.4168	3.3799	11	173	0.674473915294324	1	0
"174"	11	17	3	-1	-1.405	1	7	1	0	2.071	-4.3635	-3.0021	1.4634	-1.5108	4.1679	-1.496	5.944	-1.1446	-3.2727	6.6435	-0.5743	-2.1897	-1.1391	0.8283	-14.8184	2.995	-10.0488	-3.9957	2.1972	-3.6555	0.333	0.333	0.333	0.333	0.333	0.333	0.333	0.333	0.333	0.333	0.333	0.333	0.333	0.333	0.333	0.333	0.333	0.333	0.333	6.327	1.4136	3.4888	11	174	0.728031582413447	1	0
"175"	11	1	3	-4	-5.62	1	4	-1	1	1.091	-1.6347	-6.544	-15.2511	-11.381	-4.5279	-3.2537	0.0601	-7.5698	-10.883	-6.1852	-0.2835	-11.9871	-3.6509	-8.33	-6.4636	-1.0951	-0.9123	-13.4212	-3.875	3.274	0.333	0.333	0.333	0.333	0.333	0.333	0.333	0.333	0.333	0.333	0.333	0.333	0.333	0.333	0.333	0.333	0.333	0.333	0.333	6.327	1.5524	2.6419	11	175	0.0870947068509337	0	1
"176"	11	68	3	1	1.405	0	4	1	1	1.267	1.116	-0.4674	7.1394	2.1181	0.5629	-3.5287	-1.4054	3.4244	-1.1662	3.7897	8.1785	11.2251	12.2552	-2.1734	-1.6451	-3.1005	-1.0993	1.2381	-4.1607	-4.6762	0.2151	0.4571	0.2784	0.3247	0.5049	0.219	0.4854	0.4454	0.523	0.3805	0.2057	0.2648	0.3813	0.2024	0.2704	0.2094	0.4057	0.3247	0.2219	6.3199	1.6899	2.9673	11	176	0.236651901339002	1	0
"177"	11	30	3	-2	-2.81	1	7	1	0	2.276	-7.6083	1.8642	3.6851	-1.4157	-4.6639	3.3812	1.3666	3.5698	-7.7852	-12.6806	-3.3521	-5.8101	2.3021	-9.3548	-9.4975	-1.4346	-3.6183	0.4493	-4.8197	0.3327	0.333	0.333	0.333	0.333	0.333	0.333	0.333	0.333	0.333	0.333	0.333	0.333	0.333	0.333	0.333	0.333	0.333	0.333	0.333	6.327	1.6033	3.8772	11	177	0.822419516264084	1	0
"178"	11	65	3	-2	-2.81	0	8	1	0	2.26	1.4558	-10.9109	-0.9549	-2.5205	9.065	-9.4366	-1.0563	4.6373	-5.6906	-1.9895	-1.7807	0.4672	-0.0626	-2.423	-7.94	-1.2382	-10.6469	-7.2978	-6.6334	0.0613	0.2272	0.3066	0.4339	0.3154	0.2363	0.208	0.4309	0.2604	0.4789	0.2757	0.4072	0.3426	0.2149	0.3927	0.2681	0.5108	0.4322	0.3089	0.2729	6.3236	1.4751	3.744	11	178	0.815364813284194	1	0
"179"	11	38	3	-1	-1.405	0	7	-1	1	2.047	-4.8546	4.9618	-3.6852	1.6712	-7.7263	4.2768	0.7004	-8.2318	0.7684	-6.2694	-5.3555	2.8389	-10.7096	3.5597	-4.259	0.5241	5.7726	-6.1178	1.1909	2.805	0.2086	0.3998	0.2681	0.383	0.2026	0.3199	0.3535	0.2124	0.2506	0.3911	0.4182	0.263	0.3551	0.247	0.4266	0.3093	0.5272	0.4724	0.3136	6.3222	1.7232	3.7807	11	179	0.716375306679153	0	1
"180"	11	67	3	0	0	0	4	-1	0	1.244	0.7091	5.968	2.6838	1.2313	3.3863	-1.1299	1.5947	-2.6689	0.0633	3.695	-7.6474	-2.1914	-0.8398	-2.224	2.4901	5.2296	-9.4475	-0.3176	10.0647	-10.1821	0.4518	0.4827	0.2403	0.202	0.5107	0.383	0.221	0.3199	0.2233	0.4099	0.2006	0.2312	0.2861	0.3395	0.4528	0.3042	0.3771	0.4087	0.2739	6.3188	1.7276	2.9948	11	180	0.218331994316988	0	1
"181"	11	25	3	0	0	0	6	-1	1	1.573	-4.9961	2.8904	-3.8777	-5.9673	-7.5701	-3.5631	11.6695	3.5128	-0.0619	-3.5682	-3.325	7.0582	-2.548	-5.2005	2.1249	2.4545	6.1506	-0.9456	4.3699	1.4052	0.3047	0.2412	0.3901	0.2942	0.2181	0.4079	0.4436	0.41	0.2911	0.3615	0.4304	0.218	0.4216	0.2008	0.3064	0.428	0.261	0.3852	0.3105	6.3242	1.5643	3.157	11	181	0.452984624076141	0	1
"182"	11	14	3	4	5.62	0	4	1	1	0.972	5.7823	5.4225	5.8447	12.623	12.6594	4.0616	7.2176	0.8163	8.4283	10.0844	8.0695	-5.9046	5.739	-2.0216	6.5887	-2.508	12.2983	5.5109	9.0512	1.5625	0.2074	0.2859	0.3155	0.4099	0.2446	0.3596	0.4164	0.3477	0.4719	0.2503	0.2779	0.4827	0.3583	0.2107	0.283	0.4892	0.4481	0.201	0.2732	6.3335	1.4081	2.3891	11	182	-0.028399474521698	1	0
"183"	11	11	3	0	0	0	6	-1	1	1.475	-2.3715	-4.8071	5.0606	-8.5558	1.0809	-0.4716	4.8736	-5.1291	-1.3169	8.9207	7.334	-1.6509	-0.2508	5.5608	-1.645	-1.2891	3.6198	2.2604	0.4097	-9.887	0.227	0.2635	0.3277	0.3024	0.2411	0.3438	0.2042	0.34	0.4319	0.2454	0.3927	0.5165	0.4848	0.5148	0.2952	0.2565	0.2017	0.2535	0.4771	6.3196	1.6925	3.1756	11	183	0.388657989791783	0	1
"184"	11	53	3	0	0	0	7	-1	1	1.815	-2.2399	-0.2902	-2.1086	-8.832	6.1194	4.9916	-2.4439	0.1798	-3.4082	10.1156	-2.3629	-9.5069	1.4692	-2.1482	-1.8983	-1.0297	3.1175	-0.8325	6.6752	5.103	0.346	0.2024	0.2965	0.2039	0.3892	0.3058	0.2279	0.2733	0.233	0.4833	0.4251	0.229	0.4154	0.3476	0.5079	0.2484	0.3824	0.515	0.2914	6.3237	1.7087	3.533	11	184	0.596085467716814	0	1
"185"	11	32	3	0	0	1	6	1	1	1.89	-1.468	2.4908	-0.2014	-0.8744	-0.5804	3.3743	1.4371	-0.7841	2.0389	0.0727	-13.525	5.2244	-3.0348	4.8825	2.7043	-1.0996	-11.3408	0.0209	2.9113	7.181	0.333	0.333	0.333	0.333	0.333	0.333	0.333	0.333	0.333	0.333	0.333	0.333	0.333	0.333	0.333	0.333	0.333	0.333	0.333	6.327	1.6276	3.524	11	185	0.636576829071551	1	0
"186"	11	8	3	-4	-5.62	0	4	-1	1	1.188	-6.4609	-5.5572	-2.1273	0.2162	-7.1412	-2.3442	-9.7706	-6.249	-8.8991	-13.2567	4.2491	-7.4836	-4.7257	-9.7179	-0.2541	-7.1173	-12.1327	1.1655	0.719	-13.6769	0.4098	0.3608	0.2614	0.4451	0.3345	0.2944	0.3619	0.205	0.2815	0.3339	0.5064	0.2096	0.3903	0.2393	0.4297	0.2002	0.3008	0.2472	0.5093	6.3211	1.5669	2.7555	11	186	0.172271220940453	0	1
"187"	11	9	3	-2	-2.81	0	9	-1	1	2.635	-4.6078	2.5252	-6.2561	2.6968	-7.4908	-1.3029	3.0465	7.1749	4.7565	-5.5509	0.4287	-0.1246	-1.6461	-12.7995	-7.0864	-6.7148	-6.1123	-5.9657	-6.0691	-3.3167	0.231	0.5074	0.2213	0.3977	0.2592	0.2298	0.407	0.2126	0.4496	0.3263	0.4939	0.2462	0.4362	0.2017	0.3346	0.2029	0.5139	0.2297	0.4208	6.3216	1.5504	4.1858	11	187	0.968883181993326	0	1
"188"	11	62	3	2	2.81	1	3	1	1	0.991	2.0225	-4.39	-0.0887	4.7115	2.7416	7.0116	-2.1961	7.9742	-3.621	3.1763	4.2474	3.7435	3.6153	16.6242	0.4813	7.5003	-0.2407	7.2774	-1.3415	-1.3313	0.333	0.333	0.333	0.333	0.333	0.333	0.333	0.333	0.333	0.333	0.333	0.333	0.333	0.333	0.333	0.333	0.333	0.333	0.333	6.327	1.6093	2.609	11	188	-0.00904074465214907	1	0
"189"	11	33	3	1	1.405	1	4	1	1	1.255	1.4352	-1.7926	5.2675	-1.1631	-3.2861	4.816	-9.2942	-7.2841	3.4745	4.2598	4.7626	5.0173	0.7126	-4.9919	-2.6465	2.2994	4.2423	6.9073	9.6977	3.9074	0.333	0.333	0.333	0.333	0.333	0.333	0.333	0.333	0.333	0.333	0.333	0.333	0.333	0.333	0.333	0.333	0.333	0.333	0.333	6.327	1.673	2.9387	11	189	0.227135572583747	1	0
"190"	11	37	3	-2	-2.81	0	5	-1	1	1.657	-4.5682	-2.8148	-1.6849	-7.6281	8.5983	8.4163	1.2782	-4.7801	-7.7698	-2.2058	-8.9609	-9.7107	-4.2004	-3.9374	-0.9827	-1.6911	-3.5998	-5.7891	1.9041	-6.1174	0.38	0.42	0.2107	0.3354	0.4485	0.294	0.338	0.2533	0.5299	0.28	0.3352	0.3831	0.2082	0.3545	0.2537	0.4508	0.3238	0.244	0.2814	6.3244	1.4817	3.1405	11	190	0.505008738444426	0	1
"191"	11	28	3	4	5.62	0	4	1	1	1.034	6.4813	-4.2665	8.1036	7.9853	10.4773	7.2316	0.3203	14.1682	7.3743	-1.8152	7.9237	5.3991	0.7164	8.5184	0.3123	0.6701	12.3662	9.1102	1.6535	8.4201	0.2434	0.3163	0.394	0.2251	0.2688	0.2418	0.5205	0.3172	0.2669	0.4055	0.2242	0.2613	0.4668	0.4162	0.3034	0.4036	0.2901	0.3217	0.4383	6.3251	1.7113	2.7518	11	191	0.0334347760862374	1	0
"192"	11	22	3	-4	-5.62	0	4	-1	1	1.297	-7.8263	-7.7689	2.1401	-6.9731	-0.5182	-8.7851	-2.2128	-3.8711	-2.562	-11.2271	-3.8874	-6.9852	-0.8088	-1.2523	-5.1191	-10.8774	-20.0525	-2.519	-6.6227	-3.2247	0.4807	0.4025	0.2413	0.2707	0.4338	0.3441	0.2051	0.3891	0.2961	0.2666	0.2928	0.4839	0.2516	0.3665	0.3103	0.2013	0.3981	0.2706	0.4145	6.3197	1.4227	2.7142	11	192	0.260053905334307	0	1
"193"	11	39	3	0	0	0	5	1	1	1.473	-1.2003	9.4481	0.1665	-1.1664	-1.0456	-8.4108	6.0451	0.7524	-5.8606	1.886	-6.8694	1.2765	2.0809	4.6106	-0.1191	1.8537	-6.4784	9.753	-3.8869	-1.5261	0.4038	0.4379	0.2203	0.3093	0.2509	0.2245	0.3427	0.3078	0.2681	0.3241	0.4257	0.2711	0.4691	0.29	0.332	0.2854	0.3837	0.3203	0.4658	6.3325	1.728	3.2239	11	193	0.387301137480493	1	0
"194"	11	61	3	1	1.405	1	4	1	1	1.175	3.4206	3.804	12.9129	0.4168	-0.5368	9.6752	-2.4798	-7.0303	0.9321	-3.4988	1.9614	2.2684	3.5415	-9.1537	6.2384	1.5016	0.9549	4.2978	-1.4036	1.6971	0.333	0.333	0.333	0.333	0.333	0.333	0.333	0.333	0.333	0.333	0.333	0.333	0.333	0.333	0.333	0.333	0.333	0.333	0.333	6.327	1.4372	2.6252	11	194	0.161268147596122	1	0
"195"	11	20	3	2	2.81	1	6	1	1	1.729	0.2187	2.0914	-1.3406	1.4948	2.3745	7.7734	-4.2117	-2.2318	16.303	1.5258	7.7211	-1.9656	6.2428	-1.9507	3.4434	10.1602	3.6152	0.7308	-1.4365	4.1203	0.333	0.333	0.333	0.333	0.333	0.333	0.333	0.333	0.333	0.333	0.333	0.333	0.333	0.333	0.333	0.333	0.333	0.333	0.333	6.327	1.6163	3.3636	11	195	0.547543206701154	1	0
"196"	11	26	3	1	1.405	0	5	1	1	1.293	3.9178	7.278	4.0962	-0.7679	5.9324	8.3468	-2.7375	-2.4454	8.629	4.8562	-3.8484	2.7092	-4.3724	0.3006	5.5191	-0.9317	-7.2609	-6.1556	6.7128	-1.2856	0.2256	0.4544	0.3142	0.2312	0.4769	0.4284	0.2047	0.2535	0.5268	0.2276	0.4193	0.2375	0.2762	0.4224	0.2628	0.4382	0.2078	0.4365	0.2886	6.3325	1.47	2.7775	11	196	0.25696509978972	1	0
"197"	11	59	3	-1	-1.405	1	9	-1	1	2.749	-1.5587	-2.3069	4.8166	-6.2634	-14.5094	1.7727	-0.148	11.2193	-4.7771	-4.6369	-2.7067	-4.9202	-4.6408	-0.7275	3.6255	-1.4211	1.8371	-1.8585	-0.9986	-0.9671	0.333	0.333	0.333	0.333	0.333	0.333	0.333	0.333	0.333	0.333	0.333	0.333	0.333	0.333	0.333	0.333	0.333	0.333	0.333	6.327	1.4141	4.1827	11	197	1.01123720918311	0	1
"198"	11	51	3	-2	-2.81	0	5	-1	1	1.228	-0.9212	-6.0849	-11.5818	2.7253	-11.4002	-1.2771	2.8048	-7.9761	-1.9276	-0.5619	-2.4878	-1.1713	4.7857	0.5941	-0.2772	-3.5149	-2.6617	1.4955	-13.3605	-1.8396	0.2298	0.3157	0.2589	0.3946	0.3454	0.2596	0.2108	0.4592	0.2456	0.3879	0.4198	0.3166	0.2518	0.462	0.2114	0.4385	0.2388	0.3519	0.5249	6.323	1.594	2.8287	11	198	0.205386829724951	0	1
"199"	11	7	3	4	5.62	1	3	1	1	0.89	4.242	-0.098	7.5097	12.056	17.5379	8.755	8.0907	3.2204	12.1584	5.0418	0.6424	0.577	2.951	8.2485	8.9863	4.8388	6.8313	5.6941	-1.9307	-2.9167	0.333	0.333	0.333	0.333	0.333	0.333	0.333	0.333	0.333	0.333	0.333	0.333	0.333	0.333	0.333	0.333	0.333	0.333	0.333	6.327	1.508	2.4072	11	199	-0.116533816255952	1	0
"200"	11	44	3	-2	-2.81	1	5	-1	1	1.341	-5.7836	-4.3535	-2.2375	-10.9385	-5.3242	0.8187	2.8514	-2.002	4.4617	-11.3057	-8.754	-7.4741	-3.5491	0.526	0.8862	-0.8162	1.612	-9.0403	4.6904	-1.4051	0.333	0.333	0.333	0.333	0.333	0.333	0.333	0.333	0.333	0.333	0.333	0.333	0.333	0.333	0.333	0.333	0.333	0.333	0.333	6.327	1.471	2.8253	11	200	0.293415604299541	0	1
"201"	11	15	3	-4	-5.62	1	5	-1	1	1.354	-2.0429	-9.8069	4.0351	-2.6406	-0.0171	-7.3433	-3.6129	-6.1738	-0.2664	-14.3169	-2.8898	-1.8787	-3.2331	-15.2406	-6.7186	-12.6007	-5.9511	-5.2326	-8.0441	-9.3082	0.333	0.333	0.333	0.333	0.333	0.333	0.333	0.333	0.333	0.333	0.333	0.333	0.333	0.333	0.333	0.333	0.333	0.333	0.333	6.327	1.4791	2.8383	11	201	0.303063174490083	0	1
"202"	11	12	3	1	1.405	0	9	-1	0	2.898	-2.3453	5.8475	-4.9285	6.6609	1.363	0.6313	-7.2269	1.1968	8.1262	-3.0217	-2.1165	5.0684	-1.9775	1.8721	5.1875	4.7255	8.0372	-8.568	7.0755	0.5724	0.2058	0.4284	0.3465	0.279	0.3086	0.3788	0.4868	0.3692	0.284	0.4233	0.2958	0.2604	0.4436	0.2661	0.3963	0.3266	0.2552	0.2302	0.3372	6.3218	1.6012	4.4986	11	202	1.06402084389849	0	1
"203"	11	54	3	1	1.405	0	8	-1	0	2.609	1.6982	-5.4217	-4.6898	0.4995	6.2769	-1.5713	5.2406	-0.3513	9.1785	9.4583	1.6039	9.4453	-4.4879	-5.1406	4.1151	7.423	1.7142	-1.6534	-4.6222	1.1548	0.2263	0.4987	0.3749	0.3221	0.266	0.4417	0.336	0.386	0.2424	0.3801	0.3011	0.3968	0.2942	0.4872	0.3549	0.2634	0.2919	0.2506	0.2101	6.3243	1.5623	4.1764	11	203	0.958967006154591	0	1
"204"	11	2	3	-2	-2.81	1	7	-1	1	2.142	-2.4065	2.6777	7.3202	-6.8506	-3.4115	-1.3473	-8.5629	2.8778	-8.2324	-6.9547	-7.3347	0.1295	-5.065	5.9742	-4.4559	-12.5601	-0.7303	-1.3883	-3.7681	-2.7874	0.333	0.333	0.333	0.333	0.333	0.333	0.333	0.333	0.333	0.333	0.333	0.333	0.333	0.333	0.333	0.333	0.333	0.333	0.333	6.327	1.4487	3.5921	11	204	0.761739972025557	0	1
"205"	11	29	3	-4	-5.62	1	6	-1	1	1.724	-0.8787	-6.7908	-6.7771	-1.6839	-15.3897	-2.3699	-16.358	-2.9576	-1.9762	-10.0951	-8.0779	-1.7162	-5.8968	-13.4	-3.7385	2.9509	-2.0864	-7.7755	-3.766	-4.5066	0.333	0.333	0.333	0.333	0.333	0.333	0.333	0.333	0.333	0.333	0.333	0.333	0.333	0.333	0.333	0.333	0.333	0.333	0.333	6.327	1.4337	3.1577	11	205	0.544647172241501	0	1
"206"	11	70	3	4	5.62	0	2	1	1	0.788	9.8045	-0.1879	8.0774	-0.3519	11.9285	4.8135	1.4383	12.4224	7.995	-1.7413	5.3272	12.1975	9.0764	-1.8101	8.4097	-2.4366	11.352	7.2568	2.377	7.3274	0.4866	0.368	0.3991	0.2619	0.302	0.3571	0.4121	0.2037	0.2735	0.2194	0.4273	0.2146	0.2458	0.3738	0.2038	0.4603	0.2866	0.3119	0.5152	6.3227	1.4422	2.2383	11	206	-0.238257189124258	1	0
"207"	11	35	3	4	5.62	1	3	1	1	0.985	9.1752	-2.2122	7.9679	-2.4261	3.7342	7.5165	3.7896	8.0697	9.8729	14.8695	-1.8179	3.4734	6.077	-2.3881	9.6931	9.4504	4.4679	7.8102	12.4085	3.3199	0.333	0.333	0.333	0.333	0.333	0.333	0.333	0.333	0.333	0.333	0.333	0.333	0.333	0.333	0.333	0.333	0.333	0.333	0.333	6.327	1.5991	2.6022	11	207	-0.0151136378100482	1	0
"208"	11	23	3	-2	-2.81	0	3	1	0	0.987	-2.7553	3.8882	-10.7822	-9.4579	-4.876	-8.3491	-3.2796	-4.9202	-5.5333	-2.1039	11.6007	2.6841	-0.8475	-4.7793	-3.2523	0.9486	-2.6392	-4.9301	-3.4707	-3.6782	0.2938	0.3262	0.3785	0.2553	0.4716	0.2063	0.5113	0.2081	0.351	0.4576	0.4058	0.3128	0.2143	0.4569	0.2054	0.4706	0.2745	0.2223	0.3121	6.3345	1.6858	2.6881	11	208	-0.0130852395486555	1	0
"209"	11	47	3	1	1.405	1	4	1	1	1.138	4.2699	-3.1144	4.1569	1.4349	-0.1137	-2.4325	2.3089	0.5012	6.2601	-3.7639	-1.3464	-9.0256	2.2274	6.7673	6.5284	2.3568	12.6417	-0.2253	-6.2297	4.9604	0.333	0.333	0.333	0.333	0.333	0.333	0.333	0.333	0.333	0.333	0.333	0.333	0.333	0.333	0.333	0.333	0.333	0.333	0.333	6.327	1.4524	2.6053	11	209	0.129272335704139	1	0
"210"	11	58	3	-2	-2.81	1	4	1	0	1.309	1.2293	6.6943	-4.0332	-4.7326	-1.219	-1.5632	-2.6385	3.4334	2.5718	-4.5862	-4.6992	-14.5945	-0.0697	-10.4783	-10.5887	-1.319	-4.7582	-2.3316	2.0355	-4.085	0.333	0.333	0.333	0.333	0.333	0.333	0.333	0.333	0.333	0.333	0.333	0.333	0.333	0.333	0.333	0.333	0.333	0.333	0.333	6.327	1.6309	2.96	11	210	0.269263486927763	1	0
"211"	11	54	4	1	1.405	0	5	1	1	1.447	-0.8912	0.0458	6.1793	5.2483	-4.6358	11.3044	0.8846	-6.506	-4.5699	9.6088	1.2145	5.457	-1.5284	4.3074	-7.3301	-1.1587	0.6983	6.0872	3.0439	0.7438	0.2983	0.5227	0.2062	0.3302	0.2904	0.443	0.2398	0.2129	0.4493	0.3592	0.2912	0.3399	0.4872	0.2435	0.3465	0.2174	0.3585	0.4126	0.2744	6.3232	1.4724	2.9311	11	211	0.369492447649347	1	0
"212"	11	31	4	-1	-1.405	1	5	-1	1	1.423	-0.6587	-5.4272	0.678	-2.9221	2.955	-4.9115	-2.3897	-4.7274	-9.0371	-7.9724	2.1821	4.797	3.1058	4.6039	1.8335	-7.3153	0.9542	-2.7994	7.7294	-9.1169	0.333	0.333	0.333	0.333	0.333	0.333	0.333	0.333	0.333	0.333	0.333	0.333	0.333	0.333	0.333	0.333	0.333	0.333	0.333	6.327	1.4597	2.8902	11	212	0.352767319107715	0	1
"213"	11	65	4	-2	-2.81	0	6	-1	1	1.642	-5.9174	-2.3595	-1.9428	-0.6084	-8.2582	-2.5317	4.2004	0.1167	-8.5868	-9.7649	-2.682	-6.2463	2.4559	0.795	-5.2377	2.048	-15.4296	2.965	-2.6169	1.6143	0.232	0.3585	0.2255	0.4604	0.2193	0.2866	0.244	0.4828	0.3154	0.2641	0.3347	0.5162	0.3097	0.3909	0.2319	0.3662	0.2911	0.3202	0.4696	6.3192	1.5995	3.2425	11	213	0.495915011030236	0	1
"214"	11	7	4	4	5.62	1	4	1	1	1.065	4.1664	10.8417	16.7988	3.43	2.8326	7.7482	9.6759	12.4406	4.4096	3.5921	7.4804	2.4106	-6.589	10.5389	4.7853	-0.1745	7.3551	6.8399	2.6435	1.9808	0.333	0.333	0.333	0.333	0.333	0.333	0.333	0.333	0.333	0.333	0.333	0.333	0.333	0.333	0.333	0.333	0.333	0.333	0.333	6.327	1.5643	2.6329	11	214	0.0629747991613884	1	0
"215"	11	11	4	0	0	0	5	1	0	1.626	0.2757	1.9574	2.2937	7.287	-3.4853	-5.0515	0.4984	2.9433	2.5109	1.6678	-2.6508	-2.4722	-10.2707	-1.4097	8.997	5.6324	-1.8996	-1.8245	4.5016	-10.1079	0.3291	0.4622	0.238	0.4627	0.239	0.271	0.3235	0.3621	0.3074	0.3325	0.4438	0.5293	0.3158	0.2846	0.2552	0.297	0.2397	0.2859	0.3522	6.3311	1.6146	3.2438	11	215	0.486123011125619	1	0
"216"	11	40	4	1	1.405	0	7	1	1	2.173	5.4404	-2.0518	2.026	-1.8168	-5.6299	7.3583	8.3427	-8.7593	-5.2292	0.2079	-3.1571	8.128	-3.2874	5.224	6.4117	-0.1217	5.3805	4.1652	3.5868	2.4598	0.2029	0.4273	0.468	0.225	0.4811	0.277	0.3074	0.2605	0.4341	0.2422	0.2128	0.4273	0.5093	0.3892	0.2727	0.3031	0.2192	0.317	0.3425	6.3184	1.5012	3.6738	11	216	0.776108701274293	1	0
"217"	11	61	4	1	1.405	1	5	1	1	1.655	-2.5934	7.373	3.5445	-4.7821	-1.016	1.5003	-7.9236	3.9164	6.4234	4.1849	5.0339	-2.7403	3.7378	1.6062	1.4011	-6.9997	3.1828	12.3458	0.6517	-1.2246	0.333	0.333	0.333	0.333	0.333	0.333	0.333	0.333	0.333	0.333	0.333	0.333	0.333	0.333	0.333	0.333	0.333	0.333	0.333	6.327	1.511	3.1721	11	217	0.503801008829026	1	0
"218"	11	4	4	0	0	1	5	1	1	1.341	-0.5834	-6.2282	1.366	4.7687	-1.3378	-9.5716	-8.7256	-3.1549	-4.826	2.2862	7.465	-1.0848	-1.2615	6.9011	7.7512	-2.216	0.1499	-1.1476	6.3955	2.192	0.333	0.333	0.333	0.333	0.333	0.333	0.333	0.333	0.333	0.333	0.333	0.333	0.333	0.333	0.333	0.333	0.333	0.333	0.333	6.327	1.5146	2.8586	11	218	0.293415604299541	1	0
"219"	11	2	4	-2	-2.81	1	4	-1	1	1.179	-7.0767	-3.4097	-5.4523	0.2524	1.1076	1.1567	-2.1717	-5.841	8.1877	-0.9883	8.5056	-7.91	-4.3448	-0.2431	-9.5829	-9.5026	-5.7843	-4.1638	-2.6205	-4.7345	0.333	0.333	0.333	0.333	0.333	0.333	0.333	0.333	0.333	0.333	0.333	0.333	0.333	0.333	0.333	0.333	0.333	0.333	0.333	6.327	1.5942	2.7797	11	219	0.164666621555234	0	1
"220"	11	17	4	-1	-1.405	1	4	1	0	1.318	-3.7455	0.4382	-0.6242	-4.1112	-8.722	0.3334	-4.0574	9.3656	0.6988	-6.3637	-0.8214	7.2439	-3.3274	-11.9537	-0.5096	-0.5577	-1.954	-5.6177	5.8941	0.2543	0.333	0.333	0.333	0.333	0.333	0.333	0.333	0.333	0.333	0.333	0.333	0.333	0.333	0.333	0.333	0.333	0.333	0.333	0.333	6.327	1.4699	2.8026	11	220	0.276115436080316	1	0
"221"	11	20	4	2	2.81	1	6	1	1	1.708	7.1998	-3.5925	0.4572	-1.9487	7.3564	4.9301	5.4248	-0.2154	9.8699	-1.307	3.8048	1.6776	2.2217	5.7156	-3.1545	2.0809	9.6861	-8.3714	10.7897	3.6858	0.333	0.333	0.333	0.333	0.333	0.333	0.333	0.333	0.333	0.333	0.333	0.333	0.333	0.333	0.333	0.333	0.333	0.333	0.333	6.327	1.6074	3.3255	11	221	0.535323095366378	1	0
"222"	11	10	4	-1	-1.405	0	6	-1	1	1.696	-5.2939	-0.3557	1.0124	-1.4992	0.8526	-10.6649	7.4089	-4.3101	1.9292	-6.6193	4.9625	-2.6611	3.7393	-2.6996	1.4596	-3.694	-10.7153	-0.7213	4.7628	-5.8252	0.3447	0.2245	0.284	0.4894	0.3434	0.2317	0.3511	0.4544	0.2317	0.306	0.4195	0.2511	0.4502	0.5066	0.2057	0.4157	0.2876	0.2026	0.3229	6.323	1.5236	3.2302	11	222	0.528272537369711	0	1
"223"	11	60	4	0	0	1	7	-1	0	2.035	-0.9238	1.1232	-3.8108	0.1031	4.569	3.7072	-4.0346	-8.4868	3.9574	0.4775	11.6704	-3.0188	-1.6694	4.6706	-6.5485	3.962	0.0903	-9.0003	0.233	2.1682	0.333	0.333	0.333	0.333	0.333	0.333	0.333	0.333	0.333	0.333	0.333	0.333	0.333	0.333	0.333	0.333	0.333	0.333	0.333	6.327	1.6553	3.7022	11	223	0.710495818894558	0	1
"224"	11	13	4	2	2.81	0	5	1	1	1.41	2.1407	8.4171	-0.3317	-0.4641	7.0597	16.3807	3.0134	5.3478	6.3503	-3.0246	-3.7761	6.8046	0.6617	3.6371	-2.1349	-1.4451	7.1684	-2.4415	-1.9228	5.4848	0.2739	0.3078	0.2441	0.4691	0.4011	0.2348	0.3007	0.2653	0.4745	0.3898	0.2229	0.3983	0.2553	0.3638	0.4064	0.3583	0.4233	0.3068	0.2349	6.3312	1.4677	2.894	11	224	0.343589704390077	1	0
"225"	11	1	4	-4	-5.62	1	5	-1	1	1.531	-8.049	5.339	-4.1988	-5.0747	-8.5894	-15.0557	-6.0044	-5.6562	-2.9519	0.0152	-12.7492	-0.6191	-4.4133	-9.9897	-2.0727	-1.2766	-2.5629	-7.0472	-14.3392	-6.1723	0.333	0.333	0.333	0.333	0.333	0.333	0.333	0.333	0.333	0.333	0.333	0.333	0.333	0.333	0.333	0.333	0.333	0.333	0.333	6.327	1.6195	3.1649	11	225	0.425921116675547	0	1
"226"	11	16	4	-2	-2.81	1	6	-1	1	1.919	-2.2466	1.6448	-3.3743	-8.9844	1.5074	2.8923	-10.3252	1.3239	0.2826	4.2946	-3.1716	-3.9557	-8.3015	-9.073	-2.7653	1.8684	3.2929	-12.8078	-5.0847	-3.415	0.333	0.333	0.333	0.333	0.333	0.333	0.333	0.333	0.333	0.333	0.333	0.333	0.333	0.333	0.333	0.333	0.333	0.333	0.333	6.327	1.6961	3.6193	11	226	0.651804217025563	0	1
"227"	11	51	4	-2	-2.81	0	5	-1	1	1.691	-4.8223	-6.9562	1.4342	-2.2214	-10.5099	-2.652	3.6389	-1.6076	-0.1215	5.7481	3.1392	-6.4327	-9.5175	-2.6703	-9.2301	-7.7924	-4.9122	-4.001	-3.0427	6.0437	0.4264	0.2884	0.262	0.5254	0.2903	0.4102	0.3182	0.2533	0.3297	0.2557	0.2288	0.2759	0.4494	0.3594	0.2126	0.4088	0.2032	0.481	0.3477	6.3263	1.5016	3.208	11	227	0.525320069916443	0	1
"228"	11	29	4	-4	-5.62	1	4	-1	1	1.191	-8.6974	-3.0182	2.4146	-6.6863	-8.1234	-12.0743	-3.132	-7.1514	-7.092	-5.9664	-0.9526	-7.6487	-7.0609	2.8018	-18.62	0.1305	-5.4043	-8.0377	-2.4381	-4.5753	0.333	0.333	0.333	0.333	0.333	0.333	0.333	0.333	0.333	0.333	0.333	0.333	0.333	0.333	0.333	0.333	0.333	0.333	0.333	6.327	1.6078	2.8086	11	228	0.174793290373163	0	1
"229"	11	14	4	4	5.62	0	5	1	1	1.388	5.0318	3.9754	-0.0689	2.7641	2.2879	5.6502	5.3404	-4.086	14.4552	10.261	6.4955	1.6397	3.3316	5.8557	6.5492	18.0349	10.9432	6.606	3.5852	2.8648	0.4082	0.3034	0.3595	0.2136	0.2513	0.2767	0.3734	0.2538	0.5298	0.3565	0.4923	0.2733	0.206	0.3455	0.4321	0.2214	0.4442	0.246	0.3433	6.3304	1.5401	2.9386	11	229	0.327863862084613	1	0
"230"	11	42	4	4	5.62	0	5	1	1	1.446	4.7074	3.166	-0.0446	7.4161	5.2645	5.7348	5.4048	-3.7517	12.7001	10.7105	-0.1918	6.1379	1.3807	4.5572	10.3081	16.1905	0.3008	3.1785	10.7	10.2477	0.2537	0.3502	0.4359	0.3557	0.5084	0.3622	0.2644	0.2321	0.4511	0.2257	0.3	0.2304	0.2888	0.335	0.4547	0.428	0.2404	0.3702	0.2429	6.3299	1.689	3.1473	11	230	0.368801123736573	1	0
"231"	11	25	4	0	0	0	6	1	1	1.857	-2.1305	-1.4943	6.0702	-0.0671	2.9884	-6.2509	-11.1437	2.7553	-1.0592	1.2539	3.201	-5.8211	-4.9888	1.0753	-5.2233	10.0332	-1.1013	3.2512	7.2843	0.2829	0.3646	0.2319	0.5192	0.3604	0.2013	0.2309	0.4082	0.3154	0.2861	0.4164	0.3724	0.5044	0.2238	0.2727	0.2325	0.3968	0.4991	0.2956	0.2004	6.332	1.4166	3.2739	11	231	0.618962282370569	1	0
"232"	11	21	4	4	5.62	1	4	1	1	1.194	4.7425	8.1612	8.0313	8.1327	7.4601	8.6245	3.6083	1.4375	-0.7169	1.3048	14.3948	2.9278	12.6337	4.1913	-0.0249	2.5182	14.9397	2.5366	8.8678	-2.1958	0.333	0.333	0.333	0.333	0.333	0.333	0.333	0.333	0.333	0.333	0.333	0.333	0.333	0.333	0.333	0.333	0.333	0.333	0.333	6.327	1.5975	2.7952	11	232	0.17730901497041	1	0
"233"	11	67	4	0	0	0	4	1	1	1.183	-3.0511	1.6455	1.5302	-3.1131	8.1683	-7.2249	4.9363	-2.3046	-5.7188	-4.1871	8.9326	3.2902	5.7796	-8.3259	0.228	-6.801	3.6714	-1.4661	1.6889	0.3608	0.2344	0.364	0.4295	0.3133	0.2803	0.2454	0.3359	0.4518	0.3164	0.2893	0.2131	0.3123	0.477	0.3026	0.2075	0.4061	0.3554	0.4963	0.2891	6.3197	1.5704	2.7504	11	233	0.16805358499625	1	0
"234"	11	32	4	0	0	1	4	1	0	1.161	0.7379	3.7087	-0.9359	-5.0127	-0.9634	-1.7045	-0.1496	8.8949	-8.6606	-6.6478	0.7069	-2.9801	-1.9192	8.9309	5.0036	-6.0629	-2.173	-2.6649	6.3146	6.6612	0.333	0.333	0.333	0.333	0.333	0.333	0.333	0.333	0.333	0.333	0.333	0.333	0.333	0.333	0.333	0.333	0.333	0.333	0.333	6.327	1.538	2.7116	11	234	0.149281702715754	1	0
"235"	11	56	4	4	5.62	0	3	1	1	0.717	4.4744	4.2444	6.1235	4.9214	8.6714	7.8225	-0.5887	2.7344	14.5678	15.0249	3.8152	8.2846	11.2673	6.6149	-2.4976	3.9799	-2.8392	9.0086	-0.0719	7.3584	0.2698	0.2195	0.2615	0.2965	0.2408	0.2703	0.5124	0.434	0.2733	0.3901	0.3214	0.3676	0.2544	0.4659	0.2168	0.343	0.2933	0.5031	0.3923	6.3261	1.4854	2.2177	11	235	-0.332679438382517	1	0
"236"	11	34	4	2	2.81	1	5	1	1	1.388	-1.3206	10.847	0.5679	10.1187	11.7276	-2.4054	0.1177	-1.4259	-2.1704	3.2352	5.9381	5.8486	7.0479	-3.3763	-2.8688	5.1907	-1.6348	7.2091	3.2145	-0.0932	0.333	0.333	0.333	0.333	0.333	0.333	0.333	0.333	0.333	0.333	0.333	0.333	0.333	0.333	0.333	0.333	0.333	0.333	0.333	6.327	1.7192	3.1226	11	236	0.327863862084613	1	0
"237"	11	49	4	4	5.62	1	3	1	1	0.756	10.5547	5.4306	12.066	3.3138	2.9076	16.7819	-3.8957	5.0648	9.6105	8.3697	5.6222	0.8386	9.9309	2.8465	8.9377	1.3932	1.6207	-1.0097	4.5039	8.5022	0.333	0.333	0.333	0.333	0.333	0.333	0.333	0.333	0.333	0.333	0.333	0.333	0.333	0.333	0.333	0.333	0.333	0.333	0.333	6.327	1.6865	2.4566	11	237	-0.279713902802604	1	0
"238"	11	18	4	0	0	1	4	-1	1	1.255	-1.9071	-10.1387	4.8155	0.2285	-2.2973	8.8219	5.7739	-0.4165	-1.378	-10.5086	-6.1494	2.5018	3.0535	4.1739	0.0126	-0.8755	-4.322	0.5194	3.3347	4.3263	0.333	0.333	0.333	0.333	0.333	0.333	0.333	0.333	0.333	0.333	0.333	0.333	0.333	0.333	0.333	0.333	0.333	0.333	0.333	6.327	1.637	2.9061	11	238	0.227135572583747	0	1
"239"	11	36	4	-4	-5.62	0	3	-1	1	0.867	-3.7119	-1.175	-12.9088	-4.4042	-10.8638	-16.509	-9.5409	-8.5956	-5.0386	-3.1446	-1.7937	-11.4324	-1.5303	-3.9975	-4.5038	-9.3755	4.2584	-5.0322	-0.1137	-3.4918	0.2831	0.2082	0.5092	0.4065	0.249	0.4466	0.2609	0.2257	0.2782	0.4842	0.3062	0.4879	0.5261	0.4466	0.2128	0.2722	0.2242	0.2713	0.2198	6.3186	1.5155	2.4013	11	239	-0.142716302201595	0	1
"240"	11	64	4	-4	-5.62	0	2	-1	1	0.706	-3.1524	-3.6415	-9.3071	-8.1814	0.6662	2.7088	2.0023	-12.5779	-9.6058	-3.9229	-0.1106	-2.712	-8.2438	-4.1987	-11.4926	-5.2851	-5.3483	-7.4814	-3.5425	-17.2621	0.3046	0.4222	0.2109	0.2972	0.2148	0.4443	0.285	0.5161	0.3032	0.2339	0.408	0.2028	0.5113	0.2794	0.2002	0.4224	0.3258	0.5079	0.2461	6.3361	1.6191	2.3405	11	240	-0.348140041488895	0	1
"241"	11	35	4	4	5.62	1	2	1	1	0.585	8.1551	4.5526	12.546	-6.3844	15.5988	5.3245	1.6902	5.7302	9.6927	7.3693	6.7955	6.8667	3.4261	1.3903	0.8634	10.1533	7.8382	2.2736	9.9458	-0.7658	0.333	0.333	0.333	0.333	0.333	0.333	0.333	0.333	0.333	0.333	0.333	0.333	0.333	0.333	0.333	0.333	0.333	0.333	0.333	6.327	1.4771	2.0687	11	241	-0.536143431750281	1	0
"242"	11	53	4	0	0	0	2	-1	0	0.477	-3.2287	-3.7945	5.2815	10.7743	-3.8532	-0.0599	-6.0587	1.6837	0.373	-3.5543	-6.2809	6.7257	2.638	8.252	3.0868	-5.803	-3.8064	-2.3678	2.4999	-3.3635	0.4686	0.2791	0.2198	0.3403	0.5023	0.2282	0.3301	0.2797	0.3472	0.2204	0.4284	0.4616	0.2009	0.3159	0.2728	0.2351	0.2877	0.5046	0.407	6.3298	1.4207	1.9107	11	242	-0.740238788093796	0	1
"243"	11	9	4	-2	-2.81	0	4	-1	1	1.36	-0.5033	-7.6519	-5.6293	-6.629	-5.3992	5.2416	-1.5131	5.2793	-2.4818	-5.111	-9.3387	8.3703	-3.8521	-3.147	2.2794	-4.9947	-8.9712	-9.1817	-2.9583	-0.0484	0.5212	0.2404	0.3648	0.2434	0.3491	0.2701	0.4028	0.3365	0.2235	0.2651	0.2339	0.2907	0.2148	0.3421	0.2064	0.5132	0.4446	0.5141	0.3592	6.336	1.5115	2.8771	11	243	0.307484699747961	0	1
"244"	11	63	4	4	5.62	1	4	1	1	1.112	1.7026	17.7832	12.0115	5.3493	1.2488	3.5229	5.5691	-1.1217	6.4047	3.0339	-0.9744	7.2286	7.9951	11.2538	8.29	3.7794	-1.4814	3.2706	11.7431	7.0186	0.333	0.333	0.333	0.333	0.333	0.333	0.333	0.333	0.333	0.333	0.333	0.333	0.333	0.333	0.333	0.333	0.333	0.333	0.333	6.327	1.5849	2.6958	11	244	0.106160195828391	1	0
"245"	11	3	4	-1	-1.405	1	3	-1	1	0.948	-1.5836	-2.6169	-2.4769	1.3801	-3.2084	-1.6248	0.1923	2.3349	-12.744	-3.7563	-4.9877	-3.4142	-6.1256	8.6443	0.5935	5.5274	-9.5259	0.8577	-0.286	4.5335	0.333	0.333	0.333	0.333	0.333	0.333	0.333	0.333	0.333	0.333	0.333	0.333	0.333	0.333	0.333	0.333	0.333	0.333	0.333	6.327	1.6687	2.6159	11	245	-0.0534007767271153	0	1
"246"	11	26	4	1	1.405	0	3	1	1	0.741	0.4336	3.3868	0.6556	5.5033	8.9686	3.7984	9.9835	5.765	-2.6866	-3.1409	-1.3155	2.4975	2.1934	-3.7211	2.1485	-7.8511	-1.8411	-7.3202	4.1014	6.5323	0.3681	0.2723	0.208	0.3398	0.2013	0.3711	0.4906	0.3196	0.4144	0.2279	0.2716	0.3853	0.4386	0.2541	0.4609	0.3365	0.3002	0.3735	0.287	6.3207	1.5041	2.242	11	246	-0.29975465368605	1	0
"247"	11	22	4	-4	-5.62	0	4	-1	1	1.07	-10.5805	0.1403	-12.1682	-6.1533	0.4503	-0.8705	-7.4726	-7.7743	-2.4564	-0.9401	-13.34	-8.0791	2.5019	-7.3008	-13.1791	3.1395	-7.3575	-3.6064	-9.7102	-6.6906	0.4431	0.2644	0.3288	0.2709	0.3169	0.2246	0.2959	0.2246	0.4007	0.2553	0.5247	0.2424	0.3309	0.5216	0.317	0.3977	0.3013	0.4509	0.2075	6.3192	1.6129	2.6878	11	247	0.0676586484738149	0	1
"248"	11	55	4	2	2.81	0	4	1	1	0.993	2.4007	-1.9144	-1.9154	5.1335	3.482	0.8274	3.6057	0.5636	0.799	-2.2545	8.5829	-6.6382	1.1068	6.5842	14.6259	6.0277	3.5662	-3.3501	8.5457	6.1713	0.3191	0.2932	0.2524	0.2848	0.2442	0.5328	0.3334	0.5044	0.2294	0.2694	0.4019	0.2441	0.5039	0.3114	0.2158	0.4556	0.3262	0.2285	0.3701	6.3203	1.5724	2.5609	11	248	-0.00702461493696447	1	0
"249"	11	5	4	1	1.405	1	3	1	1	0.984	1.8437	-3.0236	11.2879	7.1869	2.518	0.5273	-0.7914	10.8713	3.332	3.7417	-5.4634	2.3238	-0.8822	-7.3317	7.0707	-2.9614	0.7213	-5.1521	-0.2436	3.7862	0.333	0.333	0.333	0.333	0.333	0.333	0.333	0.333	0.333	0.333	0.333	0.333	0.333	0.333	0.333	0.333	0.333	0.333	0.333	6.327	1.5333	2.5185	11	249	-0.0161293819298836	1	0
"250"	11	58	4	-2	-2.81	1	4	-1	1	1.013	-4.8761	3.2445	-2.6673	0.0552	1.8502	-9.2879	-1.6706	-8.9829	-7.47	-2.8911	-3.7404	4.6096	-7.573	-11.8781	3.2612	-4.3605	3.9449	-4.8591	4.6156	-6.2033	0.333	0.333	0.333	0.333	0.333	0.333	0.333	0.333	0.333	0.333	0.333	0.333	0.333	0.333	0.333	0.333	0.333	0.333	0.333	6.327	1.5165	2.53	11	250	0.0129162252665462	0	1
"251"	11	39	4	0	0	0	2	1	1	0.748	3.3231	-4.4994	1.715	-6.6739	-1.6389	5.2744	5.0334	-8.2734	11.6947	-2.8877	-3.9585	1.6841	-3.4308	4.7739	2.1296	-5.0883	6.7112	-2.7391	-2.8298	-0.1487	0.4319	0.3475	0.5061	0.2534	0.3249	0.2158	0.3842	0.3549	0.4787	0.2627	0.2061	0.2663	0.3043	0.4895	0.2824	0.3726	0.2274	0.2904	0.3279	6.3271	1.508	2.2653	11	251	-0.29035230100766	1	0
"252"	11	47	4	1	1.405	1	3	1	1	0.839	-0.471	1.8054	-0.5372	-6.3508	3.1601	0.8775	2.6022	13.5454	7.6193	1.1817	5.7018	1.5009	4.6705	-9.2302	-5.0575	-2.0309	2.7785	4.7815	-1.9158	2.2849	0.333	0.333	0.333	0.333	0.333	0.333	0.333	0.333	0.333	0.333	0.333	0.333	0.333	0.333	0.333	0.333	0.333	0.333	0.333	6.327	1.6255	2.4728	11	252	-0.175544572514931	1	0
"253"	11	70	4	4	5.62	0	2	1	1	0.673	6.3718	3.729	0.4059	5.1759	10.6449	1.0566	9.9172	2.843	8.6818	2.5499	1.3211	15.8422	-3.3495	8.8407	6.5605	6.3374	11.8422	-0.6086	12.195	3.5387	0.2487	0.4263	0.3437	0.2391	0.2964	0.4049	0.2421	0.3237	0.2784	0.4619	0.5045	0.2369	0.5147	0.3403	0.4446	0.3318	0.2287	0.266	0.1999	6.3325	1.469	2.1576	11	253	-0.396009949337409	1	0
"254"	11	37	4	-2	-2.81	0	4	-1	1	0.913	-4.948	6.9408	-1.9646	-4.1283	-7.5298	0.8295	-2.9201	-0.2704	-8.2172	-2.2934	-14.9573	-5.3862	-0.9363	-5.8481	5.3002	-4.6311	-8.5599	2.4695	0.3538	-1.0567	0.3007	0.2142	0.2999	0.3373	0.3944	0.4579	0.3272	0.525	0.4451	0.2147	0.3749	0.307	0.2812	0.4087	0.3021	0.376	0.3026	0.261	0.2033	6.3332	1.443	2.3632	11	254	-0.0910193983871685	0	1
"255"	11	23	4	-2	-2.81	0	4	-1	1	0.967	-2.1747	-1.5159	-7.7634	-0.5676	-0.3561	-5.0517	3.6624	-3.4379	-14.4384	-2.3256	-0.5393	-6.2709	4.6475	-8.6201	-1.6558	-0.5827	1.014	2.2912	-0.9442	-12.6585	0.2185	0.4025	0.2054	0.2532	0.2885	0.4422	0.3346	0.514	0.3477	0.2616	0.4831	0.3003	0.3698	0.4134	0.2181	0.474	0.2721	0.2433	0.2782	6.3205	1.6287	2.6012	11	255	-0.0335567835288428	0	1
"256"	11	44	4	-2	-2.81	1	3	-1	1	0.989	-3.7484	1.0774	-7.1463	-2.0704	-4.4712	-1.941	-5.4848	-0.1756	-8.533	-3.8304	4.4378	-4.536	4.2347	-4.9198	-0.4249	3.69	4.1675	-5.291	-6.7051	-15.0964	0.333	0.333	0.333	0.333	0.333	0.333	0.333	0.333	0.333	0.333	0.333	0.333	0.333	0.333	0.333	0.333	0.333	0.333	0.333	6.327	1.6565	2.6561	11	256	-0.0110609473594249	0	1
"257"	11	12	4	1	1.405	0	4	1	1	1.079	-0.0343	12.2058	13.9568	3.9175	-1.4219	0.2684	-4.5619	-6.7249	-2.66	0.4575	0.6398	1.7833	2.8264	1.0523	0.2009	-3.9445	2.7498	2.6647	-0.0964	4.3668	0.3577	0.3848	0.211	0.2962	0.3277	0.2843	0.423	0.3385	0.2912	0.2331	0.4885	0.4475	0.3498	0.4622	0.2322	0.2978	0.331	0.2542	0.3228	6.3337	1.6191	2.7129	11	257	0.0760346862759976	1	0
"258"	11	38	4	-1	-1.405	0	4	-1	1	1.079	-2.6254	-7.7915	-7.1639	6.0304	3.0661	1.6422	-0.2429	-1.233	5.5352	-4.3401	-8.4854	-5.5428	-9.7131	2.1711	-1.4408	-5.9596	5.7411	-0.2355	2.0591	0.6369	0.2487	0.3705	0.3405	0.4453	0.3427	0.2973	0.2195	0.3393	0.4655	0.2079	0.2544	0.2989	0.3994	0.3073	0.3881	0.3033	0.4979	0.4005	0.2062	6.333	1.6262	2.7136	11	258	0.0760346862759976	0	1
"259"	11	50	4	-4	-5.62	0	4	-1	1	0.996	-5.5005	-3.9374	-6.9676	-13.0152	-14.3932	-0.1977	-1.4605	-11.1012	-2.8748	2.3923	-8.6941	-6.2824	-7.2716	3.165	-11.1595	-7.5469	-8.265	-5.0549	1.1155	-4.9239	0.2728	0.3452	0.3731	0.2199	0.4838	0.2517	0.5105	0.2092	0.3248	0.2576	0.2944	0.2316	0.4392	0.2987	0.4863	0.2828	0.4325	0.2338	0.3759	6.3237	1.433	2.43	11	259	-0.00400802139753882	0	1
"260"	11	33	4	1	1.405	1	4	1	1	1.161	0.861	6.6744	-8.247	6.3935	-0.2889	-2.0041	10.3429	1.6041	4.1203	3.6832	5.0007	1.6919	-1.0575	2.1155	-9.3682	-0.5593	8.1489	-2.1563	-1.4103	3.3584	0.333	0.333	0.333	0.333	0.333	0.333	0.333	0.333	0.333	0.333	0.333	0.333	0.333	0.333	0.333	0.333	0.333	0.333	0.333	6.327	1.5364	2.7118	11	260	0.149281702715754	1	0
"261"	11	48	4	2	2.81	1	4	1	1	1.187	2.209	-4.5436	5.5858	1.8189	0.2216	1.7332	-0.7268	3.2909	-0.8403	2.3331	8.1434	10.5519	6.8048	16.0719	-0.9298	-1.4567	4.6808	-5.2915	2.026	4.7786	0.333	0.333	0.333	0.333	0.333	0.333	0.333	0.333	0.333	0.333	0.333	0.333	0.333	0.333	0.333	0.333	0.333	0.333	0.333	6.327	1.6846	2.8715	11	261	0.171429115627531	1	0
"262"	11	52	4	-1	-1.405	0	4	1	0	1.105	-2.5339	0.8711	-6.8005	2.9041	-3.5874	4.4487	5.5688	-3.7119	4.6502	-7.4157	-9.4727	3.5792	7.2942	1.0642	-8.5208	-2.2163	-4.604	-3.5686	-4.6295	0.2381	0.2228	0.3137	0.4592	0.3334	0.407	0.3676	0.4405	0.2023	0.325	0.3845	0.4478	0.2377	0.2994	0.4266	0.2046	0.3628	0.215	0.2648	0.4042	6.3187	1.6117	2.7228	11	262	0.0998453349697161	1	0
"263"	11	57	4	-4	-5.62	1	4	-1	1	1.093	-6.1596	-1.7861	-12.2879	1.7901	3.4589	-5.7594	-10.1207	-10.298	-7.8995	-0.7657	-6.7113	-0.8706	-8.4679	-7.0967	1.4562	-7.7618	0.1776	-13.473	-10.2179	-8.4751	0.333	0.333	0.333	0.333	0.333	0.333	0.333	0.333	0.333	0.333	0.333	0.333	0.333	0.333	0.333	0.333	0.333	0.333	0.333	6.327	1.4836	2.5765	11	263	0.0889262091944015	0	1
"264"	11	43	4	-4	-5.62	1	5	-1	1	1.465	-7.8777	5.8792	-6.7917	-5.5889	-10.0001	-5.3844	-10.422	-4.4102	-4.3968	-11.3516	-16.945	-2.4976	-6.2412	-5.7621	-3.6282	-5.7757	-4.475	-3.3096	-7.9823	3.6004	0.333	0.333	0.333	0.333	0.333	0.333	0.333	0.333	0.333	0.333	0.333	0.333	0.333	0.333	0.333	0.333	0.333	0.333	0.333	6.327	1.6543	3.116	11	264	0.381855242469031	0	1
"265"	11	46	4	0	0	1	4	1	0	1.131	4.7219	-0.1251	7.5318	-4.7467	-3.8044	-5.1718	-2.9914	-3.6397	10.2499	-5.4211	3.2404	5.1882	-2.8218	-8.2333	5.1137	6.5939	-1.7867	-1.7706	-0.5951	-1.3096	0.333	0.333	0.333	0.333	0.333	0.333	0.333	0.333	0.333	0.333	0.333	0.333	0.333	0.333	0.333	0.333	0.333	0.333	0.333	6.327	1.5632	2.6985	11	265	0.123102197133983	1	0
"266"	11	68	4	1	1.405	0	6	1	1	2.058	-0.0501	-3.9648	-4.0611	-0.4973	7.0638	-2.0601	3.124	3.3814	-2.932	12.3372	4.1882	-2.748	-6.7594	5.796	4.3192	-5.9942	5.5185	2.7369	0.1895	6.8845	0.4953	0.3582	0.2687	0.3959	0.4584	0.3658	0.4485	0.2059	0.2573	0.5043	0.2497	0.2204	0.2606	0.2061	0.3613	0.2216	0.3827	0.3056	0.3546	6.321	1.6535	3.7091	11	266	0.721734637411858	1	0
"267"	11	8	4	-4	-5.62	0	4	-1	1	1.267	-6.3969	-13.2473	-2.2593	-7.2906	-2.5407	-4.1795	-6.9719	-1.7002	-1.9246	-11.4318	-13.1357	4.8279	-1.3229	-13.7146	-0.3463	-9.0071	-7.7415	-6.674	-2.1067	-6.3134	0.5041	0.2097	0.2752	0.4556	0.2974	0.3929	0.3379	0.2742	0.3051	0.2045	0.4465	0.4053	0.2409	0.4422	0.2125	0.5018	0.203	0.3879	0.2316	6.3285	1.4406	2.7178	11	267	0.236651901339002	0	1
"268"	11	19	4	1	1.405	1	4	1	1	1.227	0.089	3.1657	3.1357	-4.4934	0.4189	1.4568	-4.8531	0.9483	1.3043	4.4652	4.2509	4.5921	-7.4653	8.285	-7.8616	6.2033	1.2733	1.752	12.1637	-1.4852	0.333	0.333	0.333	0.333	0.333	0.333	0.333	0.333	0.333	0.333	0.333	0.333	0.333	0.333	0.333	0.333	0.333	0.333	0.333	6.327	1.608	2.8442	11	268	0.204572165728774	1	0
"269"	11	24	4	-1	-1.405	0	4	1	0	1.188	-5.5423	3.3023	3.2799	2.2953	-8.0914	-3.8272	2.6169	-5.0575	4.7211	-2.2916	3.0741	-0.5672	-11.6145	4.6015	3.1293	-5.4457	-1.6033	-6.7822	-6.0117	2.7542	0.2914	0.4626	0.3832	0.4515	0.3606	0.398	0.221	0.3989	0.2539	0.3908	0.2484	0.3884	0.3588	0.2307	0.2918	0.3259	0.2425	0.2736	0.3628	6.3349	1.5825	2.7889	11	269	0.172271220940453	1	0
"270"	11	28	4	4	5.62	0	4	1	1	1.091	4.2915	-0.5945	1.9803	-3.7356	6.7854	3.4676	0.9481	9.6173	1.3956	6.4792	3.7175	1.7765	13.8978	2.4395	5.0774	8.6939	9.319	16.6408	5.8984	12.553	0.3487	0.201	0.3338	0.4258	0.3441	0.2546	0.3648	0.3343	0.2489	0.4047	0.2618	0.4272	0.3112	0.2168	0.5217	0.2427	0.2768	0.4262	0.3748	6.3197	1.6361	2.7414	11	270	0.0870947068509337	1	0
"271"	11	59	4	-1	-1.405	1	4	1	0	1.308	-1.9061	2.0405	0.4212	-10.5647	-6.0065	-0.5367	-3.6281	-6.0228	-4.3225	3.5812	6.0185	9.0929	-4.9945	-2.2107	-3.855	-4.1138	5.9147	-5.3394	-4.6324	2.1932	0.333	0.333	0.333	0.333	0.333	0.333	0.333	0.333	0.333	0.333	0.333	0.333	0.333	0.333	0.333	0.333	0.333	0.333	0.333	6.327	1.5237	2.8416	11	271	0.268499253035007	1	0
"272"	11	41	4	2	2.81	0	3	1	1	1.201	5.0424	12.5367	2.0616	3.226	0.5758	-1.3717	9.784	6.7309	-0.302	0.3849	-8.604	8.7159	7.4685	7.023	-1.8989	1.9379	-2.2912	-0.3306	1.7558	2.7485	0.3286	0.5239	0.424	0.2345	0.3316	0.202	0.4236	0.3049	0.2474	0.3054	0.2236	0.4934	0.3375	0.4362	0.3305	0.3704	0.271	0.3434	0.2021	6.3341	1.674	2.8849	11	272	0.183154543097847	1	0
"273"	11	62	4	2	2.81	1	4	1	1	1.316	4.8394	4.636	11.1328	3.0984	5.5083	-3.0507	7.3309	5.3506	-2.9404	8.9149	-0.6268	-1.7268	6.6709	2.8613	1.9792	-1.8643	11.09	-8.2755	0.5952	0.5722	0.333	0.333	0.333	0.333	0.333	0.333	0.333	0.333	0.333	0.333	0.333	0.333	0.333	0.333	0.333	0.333	0.333	0.333	0.333	6.327	1.4609	2.7834	11	273	0.274596832903126	1	0
"274"	11	66	4	-1	-1.405	0	5	1	0	1.595	-1.1236	-0.3515	-6.3755	-1.4799	-8.4114	-7.2823	-4.1283	-2.3599	7.8234	-0.9728	-6.1841	-1.0655	-8.7698	-2.0807	2.3565	-4.1578	-3.5192	6.8393	7.5126	4.3368	0.5322	0.2756	0.4199	0.3017	0.4391	0.3518	0.2135	0.4767	0.2651	0.2263	0.2634	0.357	0.2026	0.5166	0.2005	0.3588	0.2914	0.4143	0.222	6.3287	1.4132	3.0119	11	274	0.466873736236808	1	0
"275"	11	15	4	-4	-5.62	1	4	-1	1	1.192	-6.5724	-7.2725	-4.1961	-11.5417	-14.9427	-6.7801	-15.4411	-9.7687	-1.2139	-5.5403	-3.6491	-11.2951	-0.8866	-4.2487	-2.4152	-1.2418	3.0219	-1.4343	-6.0161	-0.6476	0.333	0.333	0.333	0.333	0.333	0.333	0.333	0.333	0.333	0.333	0.333	0.333	0.333	0.333	0.333	0.333	0.333	0.333	0.333	6.327	1.5684	2.7761	11	275	0.175632568643158	0	1
"276"	11	69	4	2	2.81	0	5	1	1	1.416	0.1713	-0.6229	14.2758	3.4392	-3.8809	3.5856	1.8659	-3.9957	-1.6615	9.5449	13.9005	4.8042	3.3995	-1.2544	0.4894	0.5488	3.8913	4.5802	2.345	1.3538	0.2246	0.4311	0.32	0.2567	0.5296	0.3236	0.2279	0.324	0.2401	0.4006	0.2182	0.5071	0.4501	0.4154	0.2264	0.3078	0.2211	0.2601	0.4523	6.3367	1.4618	2.8832	11	276	0.347835995271528	1	0
"277"	11	45	4	-1	-1.405	1	6	1	0	1.756	2.959	-7.8854	9.2225	-2.8387	-3.4165	-6.2572	-5.1392	-3.7647	1.8862	-4.2489	-2.7453	-3.6312	-8.8687	4.7926	-2.7215	-7.482	2.6642	-2.3781	6.3105	3.9133	0.333	0.333	0.333	0.333	0.333	0.333	0.333	0.333	0.333	0.333	0.333	0.333	0.333	0.333	0.333	0.333	0.333	0.333	0.333	6.327	1.4108	3.1732	11	277	0.563038495212925	1	0
"278"	11	6	4	2	2.81	1	4	1	1	1.142	-0.0545	2.9326	0.8946	2.2042	-8.2025	-6.9995	8.3328	9.4517	1.9476	2.047	9.3586	6.606	-4.1171	-1.2504	4.4563	8.798	3.8723	6.677	3.8819	6.0378	0.333	0.333	0.333	0.333	0.333	0.333	0.333	0.333	0.333	0.333	0.333	0.333	0.333	0.333	0.333	0.333	0.333	0.333	0.333	6.327	1.7156	2.8592	11	278	0.132781111233818	1	0
"279"	11	30	4	-2	-2.81	1	4	-1	1	1.191	-4.6902	-7.0085	-3.7488	4.1443	-12.427	3.8374	-1.0679	-1.5339	-5.1419	-7.5733	-12.9676	-3.0039	-5.6026	-2.459	0.3177	1.1861	6.2915	-1.041	-3.7436	-1.229	0.333	0.333	0.333	0.333	0.333	0.333	0.333	0.333	0.333	0.333	0.333	0.333	0.333	0.333	0.333	0.333	0.333	0.333	0.333	6.327	1.5166	2.7087	11	279	0.174793290373163	0	1
