"subNo"	"index"	"block"	"level"	"mean"	"periodicity"	"nEvents"	"answer"	"isCorrect"	"rt"	"s1"	"s2"	"s3"	"s4"	"s5"	"s6"	"s7"	"s8"	"s9"	"s10"	"s11"	"s12"	"s13"	"s14"	"s15"	"s16"	"s17"	"s18"	"s19"	"s20"	"t1"	"t2"	"t3"	"t4"	"t5"	"t6"	"t7"	"t8"	"t9"	"t10"	"t11"	"t12"	"t13"	"t14"	"t15"	"t16"	"t17"	"t18"	"t19"	"seqDuration"	"startInterval"	"trialDuration"	"pID"	"Trial"	"rtLog"	"right"	"left"
"1"	16	9	1	-2	-4.04	0	8	-1	1	2.518	-2.487	-3.7175	-1.3339	-4.7512	-11.8778	-0.1115	-1.7313	2.5505	-2.1954	-2.7176	-7.7599	-10.9146	-15.2256	-0.6526	-12.7173	-2.1999	0.7052	2.6102	-4.0169	-4.1665	0.2135	0.3783	0.3336	0.4904	0.2305	0.4552	0.2848	0.417	0.2338	0.3488	0.2921	0.5218	0.2153	0.2488	0.4133	0.3686	0.2777	0.3637	0.2382	6.3252	1.4636	3.9854	16	1	0.923464935622155	0	1
"2"	16	30	1	-2	-4.04	1	11	-1	1	3.575	-2.2999	-0.8306	-3.2634	-6.4712	0.1826	1.6587	-7.1588	-0.5019	-7.6389	-9.2313	-10.1554	-4.5886	-5.8314	-5.7425	-5.049	10.5729	-11.7	-5.001	-0.922	-8.3231	0.333	0.333	0.333	0.333	0.333	0.333	0.333	0.333	0.333	0.333	0.333	0.333	0.333	0.333	0.333	0.333	0.333	0.333	0.333	6.327	1.7028	5.2927	16	2	1.27396517614597	0	1
"3"	16	6	1	2	4.04	1	9	1	1	2.696	7.4308	5.7545	-2.5138	-4.1914	-3.5735	6.6885	5.9965	-3.6339	5.3751	6.4091	11.3958	1.3088	6.4591	-3.8376	6.9101	5.3667	3.1253	12.8573	4.0277	7.9212	0.333	0.333	0.333	0.333	0.333	0.333	0.333	0.333	0.333	0.333	0.333	0.333	0.333	0.333	0.333	0.333	0.333	0.333	0.333	6.327	1.583	4.2972	16	3	0.991769193050061	1	0
"4"	16	54	1	1	2.02	0	11	1	1	3.598	-0.1292	1.4857	7.3828	-5.0106	-6.3998	-4.9381	0.4899	-1.468	9.46	7.9806	12.8831	-1.352	6.5384	2.5064	2.2531	2.8521	1.6415	-1.6671	3.8287	3.8252	0.3637	0.2531	0.5254	0.245	0.2025	0.5132	0.3059	0.3722	0.2264	0.344	0.2565	0.3385	0.2211	0.4507	0.3924	0.2793	0.3906	0.2927	0.353	6.3263	1.4421	5.0487	16	4	1.28037813552834	1	0
"5"	16	55	1	2	4.04	0	9	1	1	2.967	6.2125	6.4041	-4.0165	4.8816	7.8204	-6.0169	8.7511	-4.6293	4.7842	3.2797	2.9206	7.3244	13.3773	3.3302	6.8553	8.7425	0.3084	-1.6813	7.7762	3.8658	0.4284	0.2232	0.2513	0.3954	0.2569	0.4775	0.2605	0.2047	0.4699	0.3831	0.2023	0.4453	0.2426	0.416	0.28	0.4238	0.5153	0.2057	0.2439	6.3257	1.6216	4.601	16	5	1.08755134130868	1	0
"6"	16	5	1	1	2.02	1	8	1	1	2.363	7.0054	5.9971	-0.5135	5.4583	2.8201	-2.747	2.9044	8.6654	7.7437	7.9108	1.7	1.1209	-3.7692	2.7438	5.8625	3.4483	-6.2874	-1.7519	-9.1387	0.425	0.333	0.333	0.333	0.333	0.333	0.333	0.333	0.333	0.333	0.333	0.333	0.333	0.333	0.333	0.333	0.333	0.333	0.333	0.333	6.327	1.5533	3.9308	16	6	0.859931998204771	1	0
"7"	16	19	1	1	2.02	1	11	1	1	3.462	6.4811	-7.2576	-0.1243	7.0797	-2.3605	-7.3785	0.1324	14.5649	-0.7467	6.0833	7.0515	2.2673	2.3232	2.5331	3.1612	3.8289	-0.3581	-1.0204	3.1035	0.5564	0.333	0.333	0.333	0.333	0.333	0.333	0.333	0.333	0.333	0.333	0.333	0.333	0.333	0.333	0.333	0.333	0.333	0.333	0.333	6.327	1.4552	4.9297	16	7	1.24184645675402	1	0
"8"	16	48	1	2	4.04	1	8	1	1	2.537	7.1671	8.0735	0.617	1.6144	10.4038	2.3757	13.0493	5.0798	-0.1143	7.624	7.9796	0.1849	6.401	7.3426	-3.2677	5.3171	5.9843	-3.7416	-6.8452	6.4978	0.333	0.333	0.333	0.333	0.333	0.333	0.333	0.333	0.333	0.333	0.333	0.333	0.333	0.333	0.333	0.333	0.333	0.333	0.333	6.327	1.6031	4.1542	16	8	0.930982280617145	1	0
"9"	16	43	1	-4	-8.08	1	9	-1	1	2.949	-12.3371	-4.5768	-0.6551	-17.3448	-8.1794	-5.9851	-6.4474	-6.7609	-7.308	-10.3507	-5.1968	-9.3479	-15.9248	-6.1364	-3.7699	-11.6399	-14.936	-10.8601	-8.2214	2.495	0.333	0.333	0.333	0.333	0.333	0.333	0.333	0.333	0.333	0.333	0.333	0.333	0.333	0.333	0.333	0.333	0.333	0.333	0.333	6.327	1.5075	4.4664	16	9	1.08146612983314	0	1
"10"	16	65	1	-2	-4.04	0	6	-1	1	1.843	-5.1989	-13.6362	-5.5462	1.3771	-1.7843	-10.2457	0.0678	-3.6912	3.5559	-0.2592	-3.5996	-8.6736	-4.8703	-0.8568	-7.6585	-2.9273	-10.4303	-2.5032	5.8457	-9.566	0.2608	0.2121	0.3972	0.3154	0.2027	0.52	0.4613	0.3218	0.5	0.2745	0.4731	0.2066	0.336	0.2077	0.2402	0.2882	0.4507	0.2905	0.3784	6.337	1.5481	3.3938	16	10	0.611394678687686	0	1
"11"	16	11	1	0	0	0	9	-1	1	2.811	-2.6235	0.537	-4.9255	-0.3159	-6.9198	4.7041	3.0782	-4.362	3.4152	-6.6627	2.9314	6.9112	-2.4172	-4.8318	-3.3609	-6.8167	9.945	2.3096	7.3323	1.5451	0.2851	0.2487	0.3257	0.4823	0.3563	0.2912	0.422	0.2028	0.4064	0.2071	0.3012	0.463	0.3093	0.2143	0.522	0.2443	0.3563	0.4925	0.2018	6.3323	1.7199	4.5288	16	11	1.03354029192439	0	1
"12"	16	47	1	1	2.02	1	9	1	1	2.764	5.2405	-7.4565	-5.6132	10.6464	4.3739	1.6707	3.2272	2.7352	0.8145	1.0209	8.785	-2.902	-3.1585	3.6604	7.6673	3.9353	-6.0917	2.4795	7.3772	0.9985	0.333	0.333	0.333	0.333	0.333	0.333	0.333	0.333	0.333	0.333	0.333	0.333	0.333	0.333	0.333	0.333	0.333	0.333	0.333	6.327	1.7166	4.4811	16	12	1.01667890590542	1	0
"13"	16	67	1	0	0	0	8	-1	0	2.698	0.4529	-5.0008	3.0989	0.0255	1.3586	-5.9434	-5.5218	-5.6786	7.954	0.0723	8.4997	2.7229	7.9115	-1.9281	-8.7335	4.71	-3.2305	0.0596	1.264	-2.5855	0.2442	0.465	0.3342	0.2593	0.3684	0.2272	0.4775	0.3935	0.4218	0.2026	0.2578	0.3604	0.4086	0.2592	0.449	0.3921	0.2848	0.3148	0.2125	6.3329	1.5398	4.2491	16	13	0.992510757785564	0	1
"14"	16	1	1	-4	-8.08	1	9	-1	1	2.733	-8.4517	0.7102	-6.8456	-14.8042	-10.7399	-6.7568	-5.6616	-2.0712	-8.4867	-13.3403	-4.4994	-2.3186	-9.521	-12.4685	-4.5542	-13.0237	-13.1296	-3.7903	-4.1876	-18.5818	0.333	0.333	0.333	0.333	0.333	0.333	0.333	0.333	0.333	0.333	0.333	0.333	0.333	0.333	0.333	0.333	0.333	0.333	0.333	6.327	1.6026	4.3504	16	14	1.00539990694593	0	1
"15"	16	7	1	4	8.08	1	7	1	1	2.219	3.7771	7.3626	-3.0548	7.4707	8.8722	1.6204	9.9736	2.8289	14.7094	10.9673	8.723	15.3706	6.7786	9.9794	11.8381	6.4735	4.7246	8.0324	6.3355	19.6573	0.333	0.333	0.333	0.333	0.333	0.333	0.333	0.333	0.333	0.333	0.333	0.333	0.333	0.333	0.333	0.333	0.333	0.333	0.333	6.327	1.4588	3.6861	16	15	0.797056643950457	1	0
"16"	16	34	1	2	4.04	1	9	1	1	2.938	6.3805	9.0701	-1.6286	-0.2129	1.1142	3.6586	1.9191	4.6595	10.5111	-7.127	2.1464	7.5035	6.6539	9.6207	10.8958	1.1447	4.3731	-2.4416	1.3947	11.087	0.333	0.333	0.333	0.333	0.333	0.333	0.333	0.333	0.333	0.333	0.333	0.333	0.333	0.333	0.333	0.333	0.333	0.333	0.333	6.327	1.636	4.5884	16	16	1.07772907775169	1	0
"17"	16	26	1	1	2.02	0	7	1	1	2.212	0.2409	6.1536	-0.4987	1.4827	-7.6092	4.7632	2.6905	5.0121	6.5755	6.1385	-7.7107	1.5588	-2.6292	7.7713	7.8366	-2.5748	8.2935	-3.7687	5.5245	0.1356	0.3136	0.3912	0.3638	0.286	0.3354	0.2476	0.3353	0.2995	0.3621	0.388	0.4149	0.3141	0.3518	0.2362	0.4	0.2626	0.3891	0.2849	0.3427	6.3188	1.6936	3.9131	16	17	0.793897083660088	1	0
"18"	16	12	1	1	2.02	0	11	1	1	3.508	1.8353	2.7226	-6.8839	-1.0761	4.5242	-1.3751	-3.2543	9.3429	1.6361	-3.7987	5.7342	-0.5827	14.8556	-0.8658	2.5079	4.615	-2.5666	4.0517	4.6286	5.6515	0.5078	0.215	0.4293	0.2156	0.4467	0.3227	0.5273	0.2312	0.2623	0.2364	0.2067	0.276	0.5032	0.3427	0.224	0.3187	0.282	0.3526	0.418	6.3181	1.685	5.2089	16	18	1.25504607450994	1	0
"19"	16	40	1	1	2.02	0	8	1	1	2.355	2.1097	1.9699	4.9815	1.9374	6.7452	-8.1625	-0.9768	3.3751	7.9207	-3.9154	2.8728	-3.4173	-0.8292	8.2166	1.2126	13.81	-2.5403	4.0678	3.0995	-2.4339	0.3928	0.286	0.3129	0.3634	0.2715	0.2165	0.3163	0.2884	0.215	0.4485	0.2209	0.2808	0.5068	0.4517	0.2772	0.25	0.4355	0.4994	0.2851	6.3186	1.6287	3.9888	16	19	0.856540727468381	1	0
"20"	16	18	1	0	0	1	10	-1	0	3.154	-3.8497	-7.4425	-9.6521	3.5734	-3.4664	-6.3694	6.1631	-0.0072	-3.5379	-2.8149	1.9644	4.0755	1.8069	4.7258	3.6491	3.4011	4.6808	8.7739	-0.1819	-4.3989	0.333	0.333	0.333	0.333	0.333	0.333	0.333	0.333	0.333	0.333	0.333	0.333	0.333	0.333	0.333	0.333	0.333	0.333	0.333	6.327	1.5799	4.7379	16	20	1.14867148854085	0	1
"21"	16	58	1	-2	-4.04	1	7	-1	1	2.054	-5.289	-5.7538	-1.8984	0.7516	-7.8193	-7.4718	3.4633	1.1221	-12.9114	-2.5687	-10.4907	-0.5076	-2.027	-3.5152	0.6146	-4.5063	-12.8962	-8.1408	4.5009	-4.4169	0.333	0.333	0.333	0.333	0.333	0.333	0.333	0.333	0.333	0.333	0.333	0.333	0.333	0.333	0.333	0.333	0.333	0.333	0.333	6.327	1.6134	3.6714	16	21	0.719789111506366	0	1
"22"	16	70	1	4	8.08	0	7	1	1	2.301	8.7412	4.1375	5.6387	6.6474	11.9939	15.4844	9.4769	8.6002	7.623	15.1665	1.7887	10.3741	9.1781	6.9802	13.2148	-4.5155	9.183	2.555	13.9483	4.7206	0.3558	0.2309	0.2991	0.463	0.3615	0.2055	0.4997	0.3084	0.3651	0.2508	0.2932	0.4594	0.2459	0.5264	0.2032	0.268	0.2194	0.4756	0.3014	6.3321	1.5071	3.8184	16	22	0.833343811053229	1	0
"23"	16	66	1	-1	-2.02	0	9	-1	1	2.956	0.5078	4.6475	3.2156	-1.1293	-7.1437	-0.6575	-4.9482	-7.9132	3.4334	-1.7983	-0.7794	6.6048	-4.1765	-9.9396	-7.898	-2.754	5.3946	-3.0102	-2.0589	-9.455	0.3619	0.3908	0.331	0.2633	0.4341	0.3239	0.4573	0.3312	0.3657	0.2168	0.2434	0.2856	0.4351	0.2455	0.4508	0.2455	0.3761	0.2947	0.2663	6.3188	1.5327	4.4902	16	23	1.08383700308596	0	1
"24"	16	45	1	-1	-2.02	1	7	-1	1	2.212	-0.9894	-7.2171	-6.8629	-1.2477	-7.2509	-0.7639	3.3751	-11.9318	-3.3499	2.2599	5.3889	-2.9678	7.1616	-6.5077	-3.3973	2.2893	0.1171	4.4319	-5.6178	-5.67	0.333	0.333	0.333	0.333	0.333	0.333	0.333	0.333	0.333	0.333	0.333	0.333	0.333	0.333	0.333	0.333	0.333	0.333	0.333	6.327	1.601	3.8294	16	24	0.793897083660088	0	1
"25"	16	62	1	2	4.04	1	7	1	1	2.153	3.329	9.6264	6.5524	7.0725	7.3823	9.2187	6.5885	-4.2981	2.7809	6.4213	-1.1325	2.9215	12.3836	-5.6492	8.9946	4.667	6.7235	-4.8412	2.9574	0.3826	0.333	0.333	0.333	0.333	0.333	0.333	0.333	0.333	0.333	0.333	0.333	0.333	0.333	0.333	0.333	0.333	0.333	0.333	0.333	6.327	1.5796	3.7536	16	25	0.766862218382226	1	0
"26"	16	41	1	2	4.04	0	8	1	1	2.423	3.4909	9.3121	-8.004	2.6161	4.5381	5.6643	14.4615	0.9315	0.5812	7.8983	3.9755	6.0094	-2.1243	3.8889	9.6843	1.4465	9.9189	5.4727	3.8544	-1.6473	0.475	0.3433	0.2089	0.376	0.2251	0.2956	0.2595	0.3154	0.2192	0.4955	0.2613	0.2249	0.4907	0.2513	0.3253	0.2829	0.3644	0.4109	0.5091	6.3342	1.5836	4.0236	16	26	0.885006441834389	1	0
"27"	16	23	1	-2	-4.04	0	6	-1	1	1.782	-1.8388	-8.7283	-7.3027	-0.9143	-8.0372	-3.4013	-5.7025	-8.6718	2.4002	-5.4258	-12.5106	-7.647	-7.0378	-11.0536	-2.5702	-1.6864	-0.9536	0.4618	3.2354	6.3449	0.2214	0.4362	0.3223	0.2576	0.4335	0.3232	0.2793	0.3871	0.5038	0.4421	0.2501	0.213	0.4438	0.2097	0.409	0.2504	0.2112	0.4062	0.3278	6.3276	1.4216	3.2165	16	27	0.577736329048618	0	1
"28"	16	56	1	4	8.08	0	5	1	1	1.523	4.6071	-0.0588	12.9902	13.634	4.6354	8.6977	4.5648	12.5705	0.0466	8.4657	4.6147	10.4686	7.8768	17.6563	7.4057	9.0064	6.9356	1.1779	10.88	15.2885	0.247	0.3718	0.2574	0.3074	0.5275	0.2216	0.5087	0.295	0.2041	0.3237	0.4491	0.3096	0.2418	0.3932	0.2856	0.2462	0.272	0.4946	0.3728	6.329	1.4419	2.9732	16	28	0.420682073913025	1	0
"29"	16	22	1	-4	-8.08	0	6	-1	1	1.747	-3.538	-13.3878	-14.8942	-6.8672	-5.1432	-2.5977	2.2438	-9.9309	-11.5721	-8.5663	-6.7636	-9.5118	-14.1792	1.4047	-11.5882	-14.843	-9.7535	-12.3698	-4.7985	-5.522	0.3871	0.2854	0.3223	0.2932	0.3582	0.2812	0.3267	0.2402	0.3717	0.3079	0.434	0.2681	0.3938	0.232	0.3927	0.2619	0.4925	0.2704	0.4034	6.3229	1.6433	3.3976	16	29	0.55790003115192	0	1
"30"	16	64	1	-4	-8.08	0	7	-1	1	1.734	-7.6347	-8.9541	-10.9595	-2.4529	-8.9093	-6.6061	-2.8691	-8.7111	-4.6933	-16.3558	-14.667	-6.9759	-6.6191	-5.9424	-8.4711	-6.3891	1.9271	-6.7263	-6.8131	-20.8827	0.357	0.2295	0.2584	0.216	0.2785	0.2438	0.4149	0.4585	0.2557	0.2088	0.3191	0.2334	0.5052	0.37	0.4272	0.5138	0.3404	0.4439	0.2619	6.3361	1.4501	3.1851	16	30	0.55043087835835	0	1
"31"	16	59	1	-1	-2.02	1	9	-1	1	2.765	1.9977	-4.7337	-4.7978	0.3288	2.9046	3.0367	-2.8724	-7.9549	-6.0938	1.9222	-7.8831	-1.1731	-3.3234	1.6075	8.1744	-9.4652	-3.6777	-6.4968	4.6398	-8.3326	0.333	0.333	0.333	0.333	0.333	0.333	0.333	0.333	0.333	0.333	0.333	0.333	0.333	0.333	0.333	0.333	0.333	0.333	0.333	6.327	1.4719	4.2485	16	31	1.0170406349743	0	1
"32"	16	49	1	4	8.08	1	5	1	1	1.643	7.1749	8.2431	-3.4529	11.1331	12.8423	10.6482	9.2118	7.5015	13.1047	1.1071	3.6116	7.4334	14.9531	7.0536	2.5978	7.1091	10.5284	9.8223	3.9837	17.7342	0.333	0.333	0.333	0.333	0.333	0.333	0.333	0.333	0.333	0.333	0.333	0.333	0.333	0.333	0.333	0.333	0.333	0.333	0.333	6.327	1.5729	3.2274	16	32	0.496523839055131	1	0
"33"	16	42	1	4	8.08	0	5	1	1	1.341	8.4769	11.2668	0.2448	8.3142	4.3837	16.1484	1.3044	13.5202	3.7775	11.2191	1.7896	2.4447	9.9341	8.978	2.7598	18.397	10.6183	10.5413	9.7541	7.0985	0.2117	0.2836	0.2452	0.49	0.2488	0.5151	0.3364	0.2293	0.3073	0.3733	0.2741	0.4331	0.4837	0.3831	0.3488	0.2777	0.3081	0.2628	0.3093	6.3214	1.6691	3.008	16	33	0.293415604299541	1	0
"34"	16	4	1	0	0	1	7	-1	1	2.158	-2.578	-3.3413	10.905	-2.429	-3.4091	-3.535	3.4107	-1.1125	1.5422	1.0471	6.6941	-9.3489	-4.8629	-5.985	-5.5892	4.2694	2.2076	6.1383	4.6642	0.6825	0.333	0.333	0.333	0.333	0.333	0.333	0.333	0.333	0.333	0.333	0.333	0.333	0.333	0.333	0.333	0.333	0.333	0.333	0.333	6.327	1.4048	3.5587	16	34	0.769181866835943	0	1
"35"	16	33	1	1	2.02	1	11	-1	0	3.341	-0.1937	7.0821	-6.1874	7.5563	6.4051	-3.019	-1.4081	1.3312	10.5309	-1.2783	1.2849	3.7586	9.4709	3.0343	4.5436	-1.0076	6.9192	-5.6836	1.9013	-4.7074	0.333	0.333	0.333	0.333	0.333	0.333	0.333	0.333	0.333	0.333	0.333	0.333	0.333	0.333	0.333	0.333	0.333	0.333	0.333	6.327	1.5244	4.8746	16	35	1.20627016337462	0	1
"36"	16	39	1	0	0	0	5	1	1	1.476	4.7716	1.7302	10.0174	4.2944	-4.2552	-4.4525	-1.8748	-1.9392	2.2294	0.2425	-1.4713	-10.6097	2.8397	-1.4694	1.573	-2.356	-6.5719	9.0031	0.9746	-2.7203	0.2349	0.2613	0.4719	0.3081	0.2142	0.5179	0.2644	0.3613	0.2808	0.4295	0.2979	0.532	0.2087	0.3599	0.4293	0.2008	0.2502	0.3719	0.3418	6.3368	1.6252	3.1097	16	36	0.389335726178281	1	0
"37"	16	57	1	-4	-8.08	1	6	-1	1	1.908	-6.1753	-12.5722	-13.3224	-2.0961	-7.4587	-13.7239	0.9534	-8.8728	-5.6515	-12.2158	-13.4474	-12.5876	-6.8978	2.3629	-14.7487	-9.0474	-9.3258	-6.4908	-0.941	-7.8037	0.333	0.333	0.333	0.333	0.333	0.333	0.333	0.333	0.333	0.333	0.333	0.333	0.333	0.333	0.333	0.333	0.333	0.333	0.333	6.327	1.6707	3.5918	16	37	0.646055573026095	0	1
"38"	16	20	1	2	4.04	1	7	1	1	2.118	8.1661	3.743	6.3635	2.7254	3.9977	13.6903	2.9351	7.192	5.566	9.7663	-0.2323	3.7612	2.4557	-10.9279	2.9053	-2.7947	6.39	2.4473	5.3552	7.1479	0.333	0.333	0.333	0.333	0.333	0.333	0.333	0.333	0.333	0.333	0.333	0.333	0.333	0.333	0.333	0.333	0.333	0.333	0.333	6.327	1.6991	3.8359	16	38	0.750472247179215	1	0
"39"	16	69	1	2	4.04	0	6	1	1	1.644	3.7187	3.634	11.4812	0.6785	0.7427	12.3571	12.2586	-2.1634	0.3248	0.1315	0.4905	3.1164	3.259	12.8078	1.7301	5.4586	8.2119	2.4045	3.2999	-3.6229	0.3558	0.2678	0.4029	0.2301	0.273	0.4169	0.2344	0.5044	0.2107	0.4759	0.2643	0.4789	0.2322	0.29	0.4749	0.2587	0.3263	0.4081	0.2236	6.329	1.5859	3.2448	16	39	0.497132296633988	1	0
"40"	16	24	1	-1	-2.02	0	8	-1	1	2.54	0.4944	-8.0146	-2.4625	2.9993	-2.4509	7.3651	1.8934	0.7713	-1.5172	-11.9942	1.4151	-1.4707	-6.4728	-2.6476	-2.8482	-0.2885	4.1079	-8.2113	0.9396	-10.9404	0.3747	0.4302	0.2891	0.2204	0.3787	0.5216	0.274	0.2284	0.5119	0.3428	0.2722	0.3063	0.2058	0.3333	0.2234	0.4571	0.418	0.2247	0.3185	6.3312	1.4642	4.0237	16	40	0.932164081030445	0	1
"41"	16	51	1	-2	-4.04	0	6	-1	1	1.944	-1.8094	-6.4177	-2.0867	1.6972	-1.0556	2.9741	-7.9616	-9.4934	-0.7352	-11.6317	-6.7723	-5.3711	-4.8922	-7.056	-5.6035	7.8272	-7.9322	-3.003	-11.9522	-0.468	0.4259	0.2795	0.5109	0.2942	0.2464	0.281	0.4242	0.5095	0.2667	0.2155	0.47	0.3868	0.2511	0.3542	0.2173	0.3599	0.2454	0.3521	0.2387	6.3294	1.4484	3.3943	16	41	0.664747706038247	0	1
"42"	16	15	1	-4	-8.08	1	6	-1	1	1.888	-6.185	-5.4803	-16.2911	-7.2927	-15.9312	-13.7194	-10.5415	-1.8395	-12.8606	-7.3587	-14.2297	0.0141	-6.497	-6.9309	-4.9771	0.2476	-5.5947	-15.3091	-6.6211	-5.644	0.333	0.333	0.333	0.333	0.333	0.333	0.333	0.333	0.333	0.333	0.333	0.333	0.333	0.333	0.333	0.333	0.333	0.333	0.333	6.327	1.5368	3.4384	16	42	0.635518067723309	0	1
"43"	16	21	1	4	8.08	1	4	1	1	1.227	4.133	12.0778	17.2894	5.6325	10.0628	1.9208	16.0034	4.4955	4.6772	10.1127	9.4658	7.8147	-2.1295	4.6795	13.999	1.6936	6.8738	9.8995	14.1244	9.0727	0.333	0.333	0.333	0.333	0.333	0.333	0.333	0.333	0.333	0.333	0.333	0.333	0.333	0.333	0.333	0.333	0.333	0.333	0.333	6.327	1.5796	2.8107	16	43	0.204572165728774	1	0
"44"	16	10	1	-1	-2.02	0	10	-1	1	2.94	-2.249	2.7878	-3.5063	-0.1447	-5.215	-0.8725	1.9467	3.7492	-9.2613	1.5488	-11.5548	-9.1526	1.727	-2.5493	6.5213	-8.5135	-2.7483	-1.4765	-4.0658	3.8131	0.5131	0.3774	0.2219	0.426	0.221	0.2644	0.237	0.4296	0.2235	0.2487	0.3197	0.528	0.2599	0.424	0.3861	0.2557	0.2085	0.3635	0.4217	6.3298	1.4315	4.3741	16	44	1.07840958135059	0	1
"45"	16	2	1	-2	-4.04	1	5	-1	1	1.545	-3.5319	-0.7859	-2.2691	-6.7342	-2.741	-1.9516	-8.2373	-9.9227	-5.6477	-3.3082	3.1055	0.1695	-1.6228	-3.7021	-5.6484	-1.8982	-18.528	-11.3893	3.1653	-0.4639	0.333	0.333	0.333	0.333	0.333	0.333	0.333	0.333	0.333	0.333	0.333	0.333	0.333	0.333	0.333	0.333	0.333	0.333	0.333	6.327	1.6258	3.1789	16	45	0.435023910349709	0	1
"46"	16	37	1	-2	-4.04	0	7	1	0	2.151	-2.9127	-5.8714	-12.7244	4.392	-4.1875	-6.1987	-6.9077	-9.2742	5.8068	-4.3805	0.1547	-10.5881	-6.8571	-0.4283	1.8423	-8.1258	-1.3816	-0.0545	-6.9553	-6.0174	0.3319	0.2063	0.4472	0.4956	0.2546	0.2022	0.4346	0.3011	0.3846	0.2427	0.4521	0.3613	0.2253	0.2911	0.2504	0.3297	0.2636	0.3858	0.4714	6.3314	1.6698	3.8189	16	46	0.765932850285593	1	0
"47"	16	68	1	1	2.02	0	7	1	1	1.841	2.8532	6.3178	-0.0712	-6.0501	1.4722	-3.8954	4.9946	7.6807	-2.4793	11.801	0.8899	-0.5499	-8.0942	8.2953	0.4251	4.9459	5.5796	3.5635	3.9539	0.693	0.3637	0.406	0.2733	0.2445	0.2949	0.231	0.4957	0.417	0.363	0.409	0.2089	0.525	0.248	0.312	0.4201	0.3159	0.2076	0.3315	0.2665	6.3337	1.7123	3.5588	16	47	0.610308902250941	1	0
"48"	16	50	1	-4	-8.08	0	6	-1	1	1.617	-6.9281	-23.1539	-0.687	-2.3016	-8.8964	-11.8629	-7.3438	-1.7856	-10.0995	-7.6005	-7.3372	-13.0019	-5.4299	-13.1806	-7.6365	-4.4914	-7.1892	-4.681	-5.5185	-10.8038	0.2	0.2544	0.5242	0.2314	0.2719	0.3758	0.493	0.3907	0.3005	0.3411	0.4283	0.2279	0.2529	0.2007	0.2316	0.3391	0.4883	0.3609	0.4099	6.3227	1.4826	3.1009	16	48	0.48057258059497	0	1
"49"	16	27	1	2	4.04	0	4	1	1	1.371	0.979	14.56	3.5093	0.9394	1.0699	5.2171	2.3572	-1.6089	8.4035	9.0277	11.6586	5.6023	0.2437	5.4189	-0.9802	5.742	6.1364	-1.959	9.1149	-5.5209	0.3528	0.4477	0.5302	0.319	0.2126	0.4542	0.2021	0.3533	0.201	0.357	0.4232	0.269	0.388	0.351	0.2096	0.2557	0.3297	0.2738	0.4054	6.3352	1.7061	3.0882	16	49	0.315540400580177	1	0
"50"	16	14	1	4	8.08	0	3	1	1	0.944	8.5385	11.4542	9.1138	7.6419	1.7601	9.6551	9.1805	6.094	-0.8379	8.3618	2.2104	7.5431	10.8827	4.6195	2.9476	10.5566	17.0283	5.0002	10.2443	19.768	0.3998	0.2714	0.3314	0.2082	0.3315	0.2418	0.4899	0.2243	0.5232	0.2391	0.4672	0.3818	0.298	0.4543	0.2718	0.2221	0.3991	0.2444	0.3187	6.3182	1.7017	2.6617	16	50	-0.0576291128366364	1	0
"51"	16	13	1	2	4.04	0	4	1	1	1.307	0.6094	4.5747	-3.9116	-0.0973	1.7433	9.2767	11.2508	8.7226	9.0557	-1.58	6.1017	1.225	-0.7032	-1.7148	4.3748	-2.7184	7.8252	5.1507	11.685	11.1438	0.2347	0.351	0.2464	0.4762	0.442	0.3938	0.4426	0.2204	0.3887	0.2128	0.3491	0.2188	0.3517	0.4034	0.2474	0.3706	0.2876	0.4732	0.207	6.3174	1.6804	3.0078	16	51	0.267734434642085	1	0
"52"	16	38	1	-1	-2.02	0	7	1	0	2.342	2.8387	-6.6892	-1.6938	-7.7962	2.9347	7.4875	-0.15	-0.1365	1.9827	-0.1727	-4.7759	3.3738	-8.3195	-1.8583	0.4611	-2.0548	-0.298	-14.009	-7.518	-3.1753	0.2603	0.3134	0.527	0.2401	0.3825	0.3522	0.3068	0.505	0.2954	0.3424	0.4483	0.2243	0.3278	0.2549	0.2246	0.2751	0.3937	0.2173	0.435	6.3261	1.7011	4.0593	16	52	0.851005265175526	1	0
"53"	16	3	1	-1	-2.02	1	6	-1	1	1.992	-3.3991	8.1607	-3.8894	-3.2238	0.7849	-4.0819	3.253	-1.354	-4.9772	0.0636	-5.4311	-0.7709	-7.3347	2.1244	1.8459	-8.2506	-12.413	-7.713	5.5124	0.1165	0.333	0.333	0.333	0.333	0.333	0.333	0.333	0.333	0.333	0.333	0.333	0.333	0.333	0.333	0.333	0.333	0.333	0.333	0.333	6.327	1.4774	3.4763	16	53	0.689139159162407	0	1
"54"	16	16	1	-2	-4.04	1	7	-1	1	2.122	-2.3654	-6.3852	-3.0743	-8.4293	3.3689	-1.846	-3.339	-15.4445	-2.1711	-5.9797	-11.8368	-3.3153	1.9303	-2.9632	-8.8826	4.2029	-4.7243	0.7928	-7.7626	-0.8132	0.333	0.333	0.333	0.333	0.333	0.333	0.333	0.333	0.333	0.333	0.333	0.333	0.333	0.333	0.333	0.333	0.333	0.333	0.333	6.327	1.595	3.7228	16	54	0.752359040191791	0	1
"55"	16	36	1	-4	-8.08	0	5	-1	1	1.553	-6.6766	-2.8843	-5.0031	-18.7732	-5.829	-9.6439	-16.5254	-4.0675	-4.705	-10.8696	-12.2974	-5.3754	-2.0552	-2.7475	-10.0757	-8.1326	-7.7292	-6.7041	-3.5744	-18.4477	0.2404	0.44	0.2773	0.4146	0.218	0.4071	0.2045	0.241	0.3436	0.4158	0.2701	0.2121	0.4721	0.4243	0.3396	0.3919	0.2017	0.3203	0.4829	6.3174	1.6517	3.2209	16	55	0.44018854416655	0	1
"56"	16	32	1	0	0	1	7	1	1	2.127	1.8029	-3.4753	0.7252	1.0368	-4.1861	3.4668	-1.2091	-5.403	-1.4408	6.7241	11.5831	-4.3491	-5.1104	6.1943	3.5379	-1.848	-3.1452	6.0313	-9.0662	-0.1078	0.333	0.333	0.333	0.333	0.333	0.333	0.333	0.333	0.333	0.333	0.333	0.333	0.333	0.333	0.333	0.333	0.333	0.333	0.333	6.327	1.4963	3.6281	16	56	0.7547125362181	1	0
"57"	16	35	1	4	8.08	1	4	1	1	1.066	9.9255	8.9206	5.4057	10.6469	14.9577	3.9302	3.8921	7.818	7.7476	14.1048	14.1643	3.2996	12.6827	5.7483	1.0001	14.6979	6.1963	-1.8235	4.0304	12.8819	0.333	0.333	0.333	0.333	0.333	0.333	0.333	0.333	0.333	0.333	0.333	0.333	0.333	0.333	0.333	0.333	0.333	0.333	0.333	6.327	1.4516	2.5168	16	57	0.0639133257436529	1	0
"58"	16	46	1	0	0	1	7	-1	0	2.008	-3.6811	3.0907	-1.4262	1.5329	2.586	-1.9423	-4.253	-4.0546	12.184	5.6125	1.4916	-0.5793	9.1306	-3.9264	-7.2572	0.3305	-1.7396	-1.7892	-8.0091	1.4795	0.333	0.333	0.333	0.333	0.333	0.333	0.333	0.333	0.333	0.333	0.333	0.333	0.333	0.333	0.333	0.333	0.333	0.333	0.333	6.327	1.537	3.5588	16	58	0.697139201829483	0	1
"59"	16	17	1	-1	-2.02	1	6	-1	1	1.954	-2.1361	1.3965	0.1234	-5.0689	-6.0331	6.7953	1.8592	-0.588	-10.6314	0.4273	-4.2296	3.6634	4.2721	-8.0627	-8.5584	1.9098	0.6192	-0.0037	-6.1742	-10.3161	0.333	0.333	0.333	0.333	0.333	0.333	0.333	0.333	0.333	0.333	0.333	0.333	0.333	0.333	0.333	0.333	0.333	0.333	0.333	6.327	1.7218	3.6886	16	59	0.669878553620591	0	1
"60"	16	31	1	-1	-2.02	1	8	-1	1	2.635	2.436	-6.8732	-8.1191	2.3998	-7.0831	-3.2186	-1.8823	-4.9089	-8.4078	5.5099	-4.1786	10.1116	-1.9536	1.8355	0.8064	-6.777	-8.0499	-1.6153	-0.4699	-0.5994	0.333	0.333	0.333	0.333	0.333	0.333	0.333	0.333	0.333	0.333	0.333	0.333	0.333	0.333	0.333	0.333	0.333	0.333	0.333	6.327	1.4884	4.1189	16	60	0.968883181993326	0	1
"61"	16	25	1	0	0	0	4	1	1	1.064	1.192	1.0163	0.2329	-3.3937	6.7345	4.1183	-1.9332	3.7138	-8.5505	0.0405	-6.617	-1.4846	2.0085	-4.4238	11.1661	-8.207	4.2408	2.2849	-2.8786	-0.0691	0.2795	0.3614	0.3024	0.2141	0.4551	0.3183	0.2795	0.4801	0.233	0.4747	0.276	0.2073	0.2875	0.4919	0.2855	0.4546	0.3661	0.2622	0.3079	6.337	1.5873	2.6485	16	61	0.0620353909194527	1	0
"62"	16	8	1	-4	-8.08	0	4	-1	1	1.219	-4.9064	-12.4161	-11.7953	-8.1321	-2.2362	-4.9061	-6.865	-14.0286	-15.3404	-4.4514	-0.5454	-7.111	-1.8701	-2.6152	-16.1354	-11.0391	-6.4382	-5.2635	-10.3047	-16.0931	0.2476	0.4898	0.3512	0.2424	0.2839	0.2289	0.3993	0.2222	0.4746	0.2182	0.438	0.294	0.4371	0.2303	0.5007	0.386	0.3027	0.2171	0.3606	6.3246	1.682	2.9035	16	62	0.198030850499135	0	1
"63"	16	53	1	0	0	0	4	1	1	1.478	-2.0977	8.0892	-8.236	2.5392	-4.0066	-0.3223	5.327	5.1727	-3.1721	-2.1516	-1.1722	-3.5213	-2.0735	11.4681	-4.9705	4.0669	1.4819	-1.0934	-0.9969	-6.1372	0.4438	0.279	0.4611	0.3332	0.2742	0.3732	0.2038	0.3574	0.2923	0.3452	0.4982	0.2953	0.2113	0.2457	0.2801	0.4317	0.5021	0.227	0.2668	6.3214	1.524	3.0125	16	63	0.39068982252601	1	0
"64"	16	44	1	-2	-4.04	1	6	-1	1	1.692	-2.5773	5.9401	-5.3071	-1.4817	-7.2104	-6.3812	-7.8149	-5.7979	-9.7749	-13.6906	-0.2703	-0.933	-6.6199	-5.4423	-0.5465	4.2229	3.543	-7.3062	-4.3729	-9.2111	0.333	0.333	0.333	0.333	0.333	0.333	0.333	0.333	0.333	0.333	0.333	0.333	0.333	0.333	0.333	0.333	0.333	0.333	0.333	6.327	1.4092	3.1088	16	64	0.525911261184032	0	1
"65"	16	63	1	4	8.08	1	4	1	1	1.066	10.8462	5.4236	10.4558	13.5676	13.6273	1.8663	13.2566	6.6515	3.4155	16.8881	1.211	9.5723	6.3021	13.9338	6.5048	8.1005	-2.2493	9.5565	3.2177	9.7126	0.333	0.333	0.333	0.333	0.333	0.333	0.333	0.333	0.333	0.333	0.333	0.333	0.333	0.333	0.333	0.333	0.333	0.333	0.333	6.327	1.6205	2.7005	16	65	0.0639133257436529	1	0
"66"	16	61	1	1	2.02	1	4	1	1	1.261	1.1931	6.0863	-1.7717	1.9197	2.1684	6.79	6.574	10.9553	-0.5327	9.5846	-7.5093	-3.6704	4.55	6.4518	-5.4423	1.2846	4.1311	0.6812	-2.1269	-1.6391	0.333	0.333	0.333	0.333	0.333	0.333	0.333	0.333	0.333	0.333	0.333	0.333	0.333	0.333	0.333	0.333	0.333	0.333	0.333	6.327	1.6729	2.9455	16	66	0.231905056982782	1	0
"67"	16	60	1	0	0	1	5	1	0	1.338	-0.7042	4.053	0.6504	-3.1552	5.8593	10.2051	-3.4379	-0.4758	5.5616	-2.2507	4.5228	-4.2708	1.9786	6.783	0.7057	-7.7394	-4.0212	-7.5868	-3.2802	-4.8481	0.333	0.333	0.333	0.333	0.333	0.333	0.333	0.333	0.333	0.333	0.333	0.333	0.333	0.333	0.333	0.333	0.333	0.333	0.333	6.327	1.6096	2.9552	16	67	0.291175961706037	1	0
"68"	16	52	1	-1	-2.02	0	7	-1	1	2.228	-3.0394	-6.5907	4.9992	-6.9013	0.7815	0.0184	6.0481	-6.5406	-0.3775	-10.214	-3.6844	-7.2159	0.1866	-1.0393	-1.4538	-11.0819	7.1339	-2.2305	-1.1352	2.0232	0.5012	0.2432	0.3241	0.3907	0.2804	0.4246	0.2734	0.2402	0.2034	0.3099	0.2788	0.2454	0.3444	0.449	0.3399	0.4515	0.2002	0.4698	0.3653	6.3354	1.6112	3.8451	16	68	0.801104322065038	0	1
"69"	16	29	1	-4	-8.08	1	4	-1	1	1.269	-9.5273	-8.5624	-11.6851	-0.5017	-10.443	-6.0114	-13.5414	-12.2241	-11.6213	-8.6535	-15.107	-4.5747	-1.1121	-12.6663	-14.8821	0.7438	-6.5935	-8.3709	0.2707	-7.7924	0.333	0.333	0.333	0.333	0.333	0.333	0.333	0.333	0.333	0.333	0.333	0.333	0.333	0.333	0.333	0.333	0.333	0.333	0.333	6.327	1.4272	2.7032	16	69	0.238229188732251	0	1
"70"	16	28	1	4	8.08	0	4	1	1	1.126	12.4287	7.3538	9.7619	6.2538	6.5868	10.8093	11.9208	15.7837	2.7189	4.305	1.0092	3.8117	10.5032	4.9192	12.2492	14.7722	0.1923	5.2187	17.0283	3.709	0.2971	0.2249	0.5227	0.3681	0.3105	0.2348	0.5047	0.2134	0.4127	0.368	0.2064	0.2443	0.3889	0.214	0.3856	0.4538	0.2262	0.3974	0.3467	6.3201	1.4023	2.5435	16	70	0.118671529717499	1	0
"71"	16	32	2	0	0	1	6	1	0	1.76	2.9155	6.1838	5.4388	3.3787	-2.387	-1.0093	6.6612	-2.4368	-0.9493	-0.5839	5.5335	6.6257	-5.9489	-2.42	3.1923	-7.7927	3.5044	-7.6896	-6.6931	-4.2937	0.333	0.333	0.333	0.333	0.333	0.333	0.333	0.333	0.333	0.333	0.333	0.333	0.333	0.333	0.333	0.333	0.333	0.333	0.333	6.327	1.5882	3.3609	16	71	0.56531380905006	1	0
"72"	16	56	2	4	5.6	0	6	1	1	1.894	7.2167	1.1052	10.4821	1.4194	15.8746	6.3343	9.4904	11.2995	13.4866	5.8682	9.2633	-0.4838	1.5835	4.8086	-0.683	1.9119	1.0732	5.137	5.8189	-0.9706	0.4266	0.2249	0.462	0.3134	0.2714	0.2288	0.5189	0.3087	0.2589	0.228	0.4073	0.2073	0.2633	0.3605	0.2663	0.3498	0.5152	0.4484	0.2577	6.3176	1.4829	3.3949	16	72	0.638690994763886	1	0
"73"	16	24	2	-1	-1.4	0	7	-1	1	2.229	-0.6426	0.6768	-7.176	-0.3595	-3.5903	-7.6133	4.0911	3.1845	-4.8498	-5.104	2.1095	2.9066	5.9488	2.723	-3.1554	4.8211	-3.7102	-12.7553	-5.852	1.4062	0.309	0.417	0.336	0.2559	0.5213	0.238	0.2642	0.3678	0.2686	0.4131	0.4391	0.206	0.2408	0.315	0.2106	0.4276	0.375	0.4223	0.2953	6.3226	1.4126	3.6467	16	73	0.801553054403732	0	1
"74"	16	70	2	4	5.6	0	6	1	1	2.277	1.5187	12.9905	0.0872	6.1286	8.8858	11.1942	4.8556	-4.3227	-0.7496	0.7998	14.0104	6.2683	0.6747	8.8657	10.4812	9.1579	2.8584	4.4458	9.1613	5.3257	0.4871	0.4184	0.2227	0.519	0.2414	0.4963	0.2094	0.4498	0.3102	0.3394	0.2507	0.3717	0.2773	0.3283	0.2059	0.2671	0.4341	0.2752	0.2211	6.3251	1.6127	3.8942	16	74	0.822858787081603	1	0
"75"	16	40	2	1	1.4	0	7	-1	0	1.852	-1.4585	-4.2926	2.4525	2.3764	-4.9678	7.0057	-3.7095	4.8504	2.6327	2.0343	6.4256	11.095	-2.5211	3.1632	2.6769	4.1523	4.8167	-11.375	3.2472	0.2421	0.2829	0.2386	0.3264	0.3909	0.2322	0.2996	0.4007	0.4358	0.2843	0.3178	0.2085	0.3686	0.4228	0.3893	0.2614	0.3538	0.2367	0.392	0.4892	6.3315	1.6299	3.4859	16	75	0.616266136223988	0	1
"76"	16	34	2	2	2.8	1	7	1	1	2.246	6.558	0.4517	1.7637	-0.7221	-0.6261	11.0903	6.2116	17.388	1.7366	5.2004	-0.3488	1.4993	7.9063	-2.1177	3.7283	-4.1292	-1.5821	1.3701	-0.6338	3.0409	0.333	0.333	0.333	0.333	0.333	0.333	0.333	0.333	0.333	0.333	0.333	0.333	0.333	0.333	0.333	0.333	0.333	0.333	0.333	6.327	1.6078	3.8635	16	76	0.809150856316251	1	0
"77"	16	10	2	-1	-1.4	0	8	-1	1	2.582	-3.8164	-5.7673	1.249	0.8794	-1.0864	6.3737	-2.7411	0.8905	-9.913	0.1948	-7.2707	-1.2883	6.4348	3.7006	-5.6014	-10.9351	0.6409	-3.4501	-0.6552	6.159	0.3306	0.2675	0.4847	0.2338	0.3457	0.5071	0.2137	0.2965	0.2442	0.515	0.2466	0.4123	0.2805	0.2168	0.494	0.2449	0.4982	0.2342	0.2641	6.3307	1.6086	4.1999	16	77	0.948564292424451	0	1
"78"	16	21	2	4	5.6	1	7	1	1	2.112	4.6621	-0.9888	6.1945	5.2977	3.533	14.2797	7.4246	4.5293	13.1632	8.5336	5.1563	0.1904	6.759	-1.0452	10.5637	7.445	2.9134	13.3904	-3.6149	1.8104	0.333	0.333	0.333	0.333	0.333	0.333	0.333	0.333	0.333	0.333	0.333	0.333	0.333	0.333	0.333	0.333	0.333	0.333	0.333	6.327	1.4402	3.5459	16	78	0.747635365844015	1	0
"79"	16	44	2	-2	-2.8	1	5	-1	1	1.654	-3.549	-1.9389	-0.5631	-0.164	-8.3256	-10.2519	-2.6739	4.6474	2.4668	4.1031	-5.0598	-10.1179	-1.0878	-3.7987	-11.2409	-3.3397	-6.0135	-5.1301	0.2125	5.9112	0.333	0.333	0.333	0.333	0.333	0.333	0.333	0.333	0.333	0.333	0.333	0.333	0.333	0.333	0.333	0.333	0.333	0.333	0.333	6.327	1.6262	3.3048	16	79	0.5031965966015	0	1
"80"	16	42	2	4	5.6	0	8	1	1	2.431	1.3913	-3.9235	1.0633	8.0862	0.193	3.9771	4.6824	7.2529	0.6198	12.9086	7.5303	9.8069	6.7071	2.5838	3.7657	4.7123	8.4889	3.5988	14.3323	15.1506	0.4399	0.2287	0.2802	0.3233	0.4254	0.2062	0.4921	0.2117	0.2595	0.2074	0.2381	0.4879	0.3631	0.4637	0.5159	0.2847	0.364	0.3252	0.2163	6.3333	1.6574	4.098	16	80	0.888302695333986	1	0
"81"	16	36	2	-4	-5.6	0	5	-1	1	1.502	-10.0228	-2.5234	-12.4765	-10.5349	-11.0618	-4.6281	-2.0905	0.8995	-3.5246	-11.1036	-9.8266	-0.4489	-5.6985	-12.753	4.8449	-8.0618	-1.9776	-3.1397	-7.2943	-0.7625	0.2066	0.3689	0.3983	0.2341	0.5037	0.2166	0.3109	0.2174	0.2711	0.4796	0.201	0.4102	0.529	0.2246	0.5075	0.2007	0.4658	0.3657	0.216	6.3277	1.6427	3.1527	16	81	0.406797553341943	0	1
"82"	16	54	2	1	1.4	0	6	1	1	1.894	0.8675	3.0494	5.4571	-3.4294	14.7077	3.0736	3.1023	7.5538	-3.3599	-7.9465	-4.8389	2.4841	-2.5202	3.0475	-1.5764	3.0149	1.379	0.3614	4.5307	-0.7017	0.3853	0.2752	0.5315	0.3122	0.3768	0.2921	0.2053	0.3272	0.283	0.2167	0.3753	0.3141	0.4415	0.4053	0.2648	0.4521	0.3748	0.2048	0.298	6.3359	1.6783	3.5776	16	82	0.638690994763886	1	0
"83"	16	50	2	-4	-5.6	0	6	-1	1	1.73	-6.7859	-2.6178	-12.9275	-4.4857	-7.2951	-10.0617	-14.7872	-9.9824	0.9203	-3.3652	2.9794	-6.7638	1.516	0.2734	-4.8963	-10.8226	-4.9882	-4.6329	-2.6422	-10.8853	0.2653	0.3718	0.4513	0.3843	0.2154	0.314	0.2142	0.3818	0.4265	0.2529	0.212	0.4207	0.3527	0.278	0.2464	0.4196	0.308	0.4807	0.3247	6.3203	1.6785	3.4144	16	83	0.548121408509688	0	1
"84"	16	38	2	-1	-1.4	0	5	1	0	1.743	-2.2543	0.1426	1.4549	2.3006	1.9956	-5.8141	-5.0955	3.5201	-10.8558	-2.2896	1.0791	3.6202	6.6655	-6.3782	-2.6243	1.6275	6.2821	-7.0016	-5.5921	-8.4034	0.4258	0.333	0.4024	0.3731	0.3215	0.2133	0.3999	0.5093	0.2456	0.302	0.2631	0.2233	0.5324	0.2531	0.3917	0.2172	0.311	0.271	0.3383	6.3272	1.4628	3.2104	16	84	0.555607766537884	1	0
"85"	16	63	2	4	5.6	1	6	1	1	1.667	5.6721	-0.2632	0.962	11.5174	7.7545	2.2319	17.6136	6.7381	8.2513	6.1753	0.1382	6.0015	5.3076	4.5577	4.4184	1.4061	12.4846	12.2799	0.6672	-0.1839	0.333	0.333	0.333	0.333	0.333	0.333	0.333	0.333	0.333	0.333	0.333	0.333	0.333	0.333	0.333	0.333	0.333	0.333	0.333	6.327	1.4281	3.1007	16	85	0.511025603768657	1	0
"86"	16	15	2	-4	-5.6	1	5	-1	1	1.473	-5.8219	-12.3827	-6.6264	-11.0744	3.1574	-6.7491	-6.5954	-14.4859	-9.6409	-5.3386	3.6956	3.0896	-1.1268	-11.5481	-6.0364	-4.8035	-5.3562	-5.7098	-6.8333	-3.1347	0.333	0.333	0.333	0.333	0.333	0.333	0.333	0.333	0.333	0.333	0.333	0.333	0.333	0.333	0.333	0.333	0.333	0.333	0.333	6.327	1.6649	3.1407	16	86	0.387301137480493	0	1
"87"	16	52	2	-1	-1.4	0	8	1	0	2.14	-1.6549	0.4891	-0.819	-1.0433	6.3157	-3.5057	-3.7302	7.2416	-8.4051	1.2604	-1.2047	1.1057	4.6026	-7.5143	-5.4243	-4.8569	-4.5071	-11.3032	5.8898	-1.9265	0.2044	0.381	0.325	0.2377	0.2803	0.2142	0.4112	0.3007	0.3675	0.3102	0.2477	0.5171	0.4671	0.495	0.2212	0.3119	0.2548	0.2965	0.4813	6.3247	1.4662	3.6073	16	87	0.76080582903376	1	0
"88"	16	47	2	1	1.4	1	7	1	1	2.24	-1.9174	2.9751	4.0668	-6.1012	2.0125	3.6262	-3.4052	3.2216	10.3275	-4.056	3.4661	9.4714	-2.0535	1.2554	6.0571	3.216	2.7282	1.0065	3.0716	-10.6835	0.333	0.333	0.333	0.333	0.333	0.333	0.333	0.333	0.333	0.333	0.333	0.333	0.333	0.333	0.333	0.333	0.333	0.333	0.333	6.327	1.6104	3.8572	16	88	0.806475865866949	1	0
"89"	16	2	2	-2	-2.8	1	7	1	0	2.306	-1.4447	-1.1371	5.9641	-2.3061	-2.9114	1.1257	-6.7901	-4.4346	-6.0319	-11.4407	-13.5604	-1.3258	0.9332	-4.8299	3.9711	-6.5374	-3.7998	5.0195	-2.6295	-2.1661	0.333	0.333	0.333	0.333	0.333	0.333	0.333	0.333	0.333	0.333	0.333	0.333	0.333	0.333	0.333	0.333	0.333	0.333	0.333	6.327	1.6363	3.9403	16	89	0.835514421846867	1	0
"90"	16	68	2	1	1.4	0	4	1	1	1.439	3.5146	3.6749	0.4791	3.6519	-0.7636	-6.9692	-2.3414	5.1045	-6.7947	6.2455	7.9871	4.3764	10.6299	-1.9049	-3.1591	-2.1433	7.9423	-5.1392	3.1836	1.4447	0.278	0.4105	0.3174	0.5087	0.3521	0.3133	0.2834	0.3172	0.3592	0.2761	0.209	0.3464	0.4179	0.2856	0.2582	0.38	0.3509	0.241	0.4174	6.3223	1.6048	3.0399	16	90	0.363948427905231	1	0
"91"	16	23	2	-2	-2.8	0	5	-1	1	1.79	1.4594	-2.555	-2.5835	-6.0577	-11.4531	-9.4303	7.0518	-0.77	-6.3283	-5.5029	-6.5184	1.7627	1.249	-6.024	0.3493	2.7137	0.7922	2.4821	-8.1772	-7.0081	0.2702	0.3831	0.5187	0.2764	0.4316	0.3484	0.2295	0.3603	0.2297	0.3786	0.2084	0.3033	0.5267	0.4678	0.3631	0.2531	0.3037	0.2002	0.2793	6.3321	1.5351	3.3246	16	91	0.582215619852664	0	1
"92"	16	48	2	2	2.8	1	5	1	1	1.617	2.016	2.2514	-3.7768	-0.0546	2.6189	2.4724	3.2443	10.5969	7.9903	0.3349	6.7581	9.706	-2.3264	-0.0437	4.5407	4.5583	9.1798	-10.6492	2.0013	3.8649	0.333	0.333	0.333	0.333	0.333	0.333	0.333	0.333	0.333	0.333	0.333	0.333	0.333	0.333	0.333	0.333	0.333	0.333	0.333	6.327	1.4121	3.051	16	92	0.48057258059497	1	0
"93"	16	16	2	-2	-2.8	1	12	-1	1	3.953	-0.7949	4.0621	0.7948	6.2435	-6.3076	-1.6838	-2.5004	-0.9749	-6.4884	3.6726	-2.9505	-5.6384	-6.4337	-2.4555	-4.4899	-6.7425	-4.1068	-10.7389	-11.7949	4.6493	0.333	0.333	0.333	0.333	0.333	0.333	0.333	0.333	0.333	0.333	0.333	0.333	0.333	0.333	0.333	0.333	0.333	0.333	0.333	6.327	1.5042	5.4705	16	93	1.37447478431455	0	1
"94"	16	12	2	1	1.4	0	5	1	1	1.367	3.0785	2.7506	0.7509	-0.7755	0.8757	-1.0534	5.0512	7.5582	-8.8308	-10.9341	3.3769	6.8041	-0.2784	-0.6499	-2.4323	7.0263	4.5827	0.6299	8.6279	0.1274	0.2075	0.3115	0.2858	0.4503	0.3857	0.2521	0.4386	0.2591	0.3079	0.3978	0.3619	0.2797	0.3786	0.2072	0.3224	0.4599	0.2554	0.526	0.2374	6.3248	1.4161	2.8009	16	94	0.312618557741813	1	0
"95"	16	18	2	0	0	1	7	1	0	2.306	4.1839	-2.9762	-9.5268	-2.4001	4.7128	3.9012	2.7984	-0.2151	-5.9759	-4.2379	-2.2055	-1.6464	2.4526	-3.564	-1.4305	13.8079	-0.1999	-1.2263	0.1256	3.7163	0.333	0.333	0.333	0.333	0.333	0.333	0.333	0.333	0.333	0.333	0.333	0.333	0.333	0.333	0.333	0.333	0.333	0.333	0.333	6.327	1.4803	3.8062	16	95	0.835514421846867	1	0
"96"	16	25	2	0	0	0	7	1	0	2.001	-4.8496	1.5327	8.2828	-4.5249	-0.4651	6.442	-2.4236	10.9299	-5.8809	4.645	-4.6995	-6.9532	-1.3921	1.5144	3.7209	1.8952	1.3452	-1.3344	-5.3314	-2.0556	0.2479	0.3212	0.2354	0.4431	0.2316	0.2602	0.4068	0.5195	0.2951	0.392	0.3316	0.2537	0.2827	0.3921	0.4479	0.2291	0.5091	0.2537	0.2807	6.3334	1.4722	3.4845	16	96	0.693647055601596	1	0
"97"	16	30	2	-2	-2.8	1	7	-1	1	2.105	-3.3734	-12.5919	1.4786	-1.7838	-3.8746	-1.2782	-3.1297	-6.4887	-0.2535	-12.5393	8.2441	-2.0555	-8.1003	-2.6076	2.5608	-1.2077	3.3752	-2.2551	-4.3175	-4.5239	0.333	0.333	0.333	0.333	0.333	0.333	0.333	0.333	0.333	0.333	0.333	0.333	0.333	0.333	0.333	0.333	0.333	0.333	0.333	6.327	1.6284	3.7387	16	97	0.744315467134345	0	1
"98"	16	49	2	4	5.6	1	5	1	1	1.552	4.8591	13.8798	4.7052	6.233	-0.9818	4.5923	3.0444	8.7753	8.6932	13.2034	14.3625	3.5358	7.3166	-1.0989	9.027	-3.3371	-0.8752	4.228	5.0643	7.6607	0.333	0.333	0.333	0.333	0.333	0.333	0.333	0.333	0.333	0.333	0.333	0.333	0.333	0.333	0.333	0.333	0.333	0.333	0.333	6.327	1.4262	2.9859	16	98	0.439544421761027	1	0
"99"	16	57	2	-4	-5.6	1	4	-1	1	1.329	-6.2753	-5.8101	-8.4549	-5.7191	-7.0205	-5.2262	-8.7018	-5.4728	-13.9427	9.0299	-2.5098	-11.2571	-3.1253	-9.1367	-11.447	-0.9205	-3.3079	-1.4886	-9.7531	-2.3901	0.333	0.333	0.333	0.333	0.333	0.333	0.333	0.333	0.333	0.333	0.333	0.333	0.333	0.333	0.333	0.333	0.333	0.333	0.333	6.327	1.4962	2.8301	16	99	0.284426779731108	0	1
"100"	16	41	2	2	2.8	0	5	1	1	1.504	2.2619	7.9648	-1.3526	-0.9059	8.8787	-0.0103	13.3328	-2.4738	-2.343	7.03	5.3186	1.4662	8.8689	5.8876	-4.5667	8.0905	1.468	-4.183	1.9158	-0.361	0.4373	0.225	0.3026	0.2342	0.3464	0.2669	0.2333	0.4263	0.4843	0.3042	0.2343	0.3832	0.4097	0.4676	0.2616	0.3151	0.5111	0.214	0.2665	6.3236	1.5908	3.1043	16	100	0.408128225527648	1	0
"101"	16	5	2	1	1.4	1	5	1	1	1.614	4.8553	-1.0699	14.3778	3.2588	3.3442	-3.7244	3.3117	2.2442	1.2397	0.3985	4.3186	0.2588	5.8799	-2.1284	-0.749	4.3694	0.0948	-3.9663	-11.7429	3.1566	0.333	0.333	0.333	0.333	0.333	0.333	0.333	0.333	0.333	0.333	0.333	0.333	0.333	0.333	0.333	0.333	0.333	0.333	0.333	6.327	1.7006	3.3153	16	101	0.478715569847757	1	0
"102"	16	19	2	1	1.4	1	6	1	1	1.869	-1.4787	8.6811	-0.5871	2.5421	6.5452	6.7027	5.6085	-1.3526	6.1391	5.1236	-4.6926	5.7293	-6.0293	4.6562	-3.7731	7.1167	-0.99	-5.1906	-5.6971	-0.3954	0.333	0.333	0.333	0.333	0.333	0.333	0.333	0.333	0.333	0.333	0.333	0.333	0.333	0.333	0.333	0.333	0.333	0.333	0.333	6.327	1.4958	3.3698	16	102	0.625403528473426	1	0
"103"	16	66	2	-1	-1.4	0	7	-1	1	2.244	0.3467	-5.6354	-4.3815	0.7705	4.4072	-1.6225	-3.9126	4.6686	2.3572	1.9449	-7.7175	-0.9426	-14.4338	4.2768	-0.4513	0.8651	-5.8756	-2.6994	5.8012	-6.5287	0.3951	0.2762	0.2007	0.4451	0.5294	0.2754	0.4671	0.2484	0.3396	0.2536	0.2042	0.3156	0.3601	0.3985	0.2293	0.2964	0.3283	0.395	0.3638	6.3218	1.6404	3.8951	16	103	0.80825998766045	0	1
"104"	16	45	2	-1	-1.4	1	7	-1	1	2.148	-4.924	-2.6808	4.6281	1.745	-5.5419	-4.5681	12.2649	-0.7162	5.4012	2.3867	-3.0778	-4.5403	0.9346	-5.257	0.118	-5.0289	-11.7473	-1.7417	-2.1129	-2.6843	0.333	0.333	0.333	0.333	0.333	0.333	0.333	0.333	0.333	0.333	0.333	0.333	0.333	0.333	0.333	0.333	0.333	0.333	0.333	6.327	1.507	3.649	16	104	0.764537176646618	0	1
"105"	16	14	2	4	5.6	0	7	1	1	2.086	6.872	0.1549	3.0863	5.0705	-4.7141	3.8891	1.1516	5.3342	9.8415	2.6493	10.4429	7.4801	-0.4396	12.5807	14.1472	2.3674	6.4403	14.5275	3.9778	8.2662	0.4132	0.2108	0.4319	0.2963	0.2359	0.302	0.2108	0.3127	0.2721	0.3146	0.2439	0.4159	0.2873	0.4144	0.453	0.24	0.5122	0.3426	0.4175	6.327	1.486	3.5866	16	105	0.735248356578581	1	0
"106"	16	64	2	-4	-5.6	0	5	-1	1	1.296	-9.9595	-18.614	-8.8053	-9.7501	-4.146	0.3114	-5.5243	-10.1002	-4.0264	-14.0358	-3.4195	-3.7053	-0.8294	-4.5977	-1.0738	-3.6144	-5.2711	-1.8134	-1.4988	0.4512	0.2031	0.3464	0.2608	0.2014	0.439	0.3296	0.2544	0.3417	0.3799	0.2666	0.4679	0.2427	0.3315	0.4785	0.4482	0.3507	0.2769	0.3095	0.4067	6.3354	1.7027	3.0139	16	106	0.259282597930083	0	1
"107"	16	9	2	-2	-2.8	0	6	-1	1	1.594	-1.5676	-0.7988	-8.1944	-0.092	-11.6701	2.8036	-5.0521	-2.1715	-0.6196	-8.7161	-1.8845	6.7323	7.5855	-7.8593	-3.6312	-7.5377	-6.6908	-3.2042	-3.3235	1.6925	0.3172	0.2251	0.3236	0.3529	0.2463	0.2952	0.4658	0.3128	0.3391	0.2844	0.5292	0.234	0.2061	0.4589	0.4055	0.3703	0.4041	0.3364	0.2267	6.3337	1.5434	3.1445	16	107	0.466246580368023	0	1
"108"	16	27	2	2	2.8	0	5	1	1	1.647	1.3339	4.289	2.8822	-0.9868	3.7837	3.1626	5.7286	-0.876	-4.3562	1.4026	-0.2764	6.3698	12.0318	2.7657	11.3562	-2.272	9.134	-5.3777	8.7599	-3.2803	0.3724	0.4326	0.2965	0.3567	0.4292	0.2503	0.4342	0.3134	0.4882	0.2604	0.2115	0.3287	0.2729	0.2445	0.2168	0.3793	0.449	0.2358	0.3539	6.3264	1.5604	3.2148	16	108	0.498955451195503	1	0
"109"	16	59	2	-1	-1.4	1	5	-1	1	1.405	0.9504	-4.4092	-3.2593	-2.7373	-9.5948	-3.5907	-2.0974	-6.1032	3.8158	2.764	9.5848	-5.6291	3.6326	-4.622	4.0866	-3.8003	2.7113	-3.0275	2.0709	-9.6775	0.333	0.333	0.333	0.333	0.333	0.333	0.333	0.333	0.333	0.333	0.333	0.333	0.333	0.333	0.333	0.333	0.333	0.333	0.333	6.327	1.6342	3.0556	16	109	0.340037302785709	0	1
"110"	16	4	2	0	0	1	4	1	0	1.301	-0.7677	5.0487	6.7425	-2.5702	9.7954	-1.1556	0.3695	1.7428	-9.2379	9.7878	-0.7812	-0.4142	-6.0302	-4.6756	2.5734	1.5139	-2.5176	-5.9936	-3.1169	-1.2196	0.333	0.333	0.333	0.333	0.333	0.333	0.333	0.333	0.333	0.333	0.333	0.333	0.333	0.333	0.333	0.333	0.333	0.333	0.333	6.327	1.6388	2.9516	16	110	0.263133199530368	1	0
"111"	16	31	2	-1	-1.4	1	6	-1	1	1.83	-5.9375	5.2675	-7.4356	-5.9347	-0.8815	-8.0367	-3.739	-4.1713	3.273	5.6925	-2.1037	0.8849	-5.3477	10.0692	0.9329	-5.6474	2.6022	-3.8252	-3.5874	1.5255	0.333	0.333	0.333	0.333	0.333	0.333	0.333	0.333	0.333	0.333	0.333	0.333	0.333	0.333	0.333	0.333	0.333	0.333	0.333	6.327	1.5756	3.4145	16	111	0.60431596685333	0	1
"112"	16	39	2	0	0	0	6	-1	0	2.067	-2.6968	2.4575	-3.6937	-2.8131	-4.2708	-3.1587	2.821	0.4616	-4.6649	-6.2855	7.9038	-1.2439	0.5567	2.0974	-0.4636	10.5825	-1.5298	-2.0246	11.2431	-5.0209	0.394	0.3363	0.4598	0.3414	0.2104	0.4918	0.2378	0.3121	0.2126	0.2636	0.3753	0.4641	0.3488	0.4032	0.2513	0.3783	0.2139	0.3687	0.2539	6.3172	1.669	3.7515	16	112	0.726098280699631	0	1
"113"	16	13	2	2	2.8	0	6	1	1	1.893	3.0776	11.0385	3.4926	3.0601	6.4577	1.9402	-3.1117	-1.6914	-0.8022	0.9091	-0.6413	7.159	4.4005	6.6447	5.6303	8.8379	-0.4944	7.5302	-11.2548	3.1372	0.3314	0.2764	0.2148	0.3758	0.4472	0.2834	0.3346	0.4085	0.3018	0.5096	0.2104	0.4337	0.3884	0.2614	0.3282	0.2189	0.4531	0.2117	0.3376	6.3268	1.5412	3.4433	16	113	0.638162872227186	1	0
"114"	16	61	2	1	1.4	1	9	-1	0	2.673	2.4174	5.2037	7.1964	-7.0656	-6.4981	-2.8911	5.9257	2.3349	-0.2273	5.6698	-6.8001	0.9414	4.4393	10.0096	4.7255	0.6026	6.2857	-0.003	0.8969	-4.3217	0.333	0.333	0.333	0.333	0.333	0.333	0.333	0.333	0.333	0.333	0.333	0.333	0.333	0.333	0.333	0.333	0.333	0.333	0.333	6.327	1.6841	4.3567	16	114	0.983201437156782	0	1
"115"	16	67	2	0	0	0	9	-1	0	2.951	-1.3766	-2.2832	9.6025	0.1962	3.2512	-5.5917	-8.9758	-1.0972	-5.9382	4.7842	10.8361	1.3686	1.7007	3.1003	-3.524	0.5762	4.0164	-5.7281	-0.2405	-2.7745	0.4993	0.44	0.3318	0.283	0.3285	0.2059	0.2555	0.2892	0.4521	0.2751	0.3915	0.2295	0.3282	0.2993	0.2388	0.3272	0.4741	0.2373	0.4494	6.3358	1.5452	4.5018	16	115	1.0821440959608	0	1
"116"	16	65	2	-2	-2.8	0	8	-1	1	2.536	-2.7871	-2.7078	3.2488	-7.5771	-4.8006	3.9222	-9.0518	0.3545	-5.2676	-5.0447	6.7863	-0.0975	0.0412	-8.0684	-14.4104	-4.4183	-2.1881	-3.5327	-3.2932	2.1112	0.3851	0.3134	0.34	0.4001	0.2131	0.3184	0.3484	0.276	0.2157	0.4279	0.2942	0.4311	0.3448	0.2395	0.3382	0.2836	0.4803	0.3627	0.3056	6.3181	1.5361	4.07	16	116	0.930588036574979	0	1
"117"	16	58	2	-2	-2.8	1	8	-1	1	2.418	-1.4333	-2.2595	1.6422	-9.773	4.9439	0.989	-6.505	-13.8043	-3.5407	-0.2235	-3.7414	-5.6487	-1.0311	-5.578	-1.0581	-0.7156	-8.0287	0.6633	6.5482	-8.7607	0.333	0.333	0.333	0.333	0.333	0.333	0.333	0.333	0.333	0.333	0.333	0.333	0.333	0.333	0.333	0.333	0.333	0.333	0.333	6.327	1.5014	3.9192	16	117	0.882940752192601	0	1
"118"	16	29	2	-4	-5.6	1	4	-1	1	1.148	-8.8802	-9.2495	-9.3505	-6.2883	3.3746	-2.0591	0.8614	1.9366	-7.0565	0.8822	-11.4727	-10.429	-4.078	-11.2611	-11.4622	1.9364	-5.1986	-5.9115	-6.0063	-11.5053	0.333	0.333	0.333	0.333	0.333	0.333	0.333	0.333	0.333	0.333	0.333	0.333	0.333	0.333	0.333	0.333	0.333	0.333	0.333	6.327	1.4722	2.6321	16	118	0.138021297897375	0	1
"119"	16	17	2	-1	-1.4	1	7	-1	1	2.167	-1.4219	-2.3623	-3.433	3.9611	-1.9716	-11.3686	-3.2446	-5.2204	2.1822	-4.1304	-5.9815	0.161	-3.902	11.8992	2.6183	-1.3076	-4.141	0.4896	4.4825	-5.6672	0.333	0.333	0.333	0.333	0.333	0.333	0.333	0.333	0.333	0.333	0.333	0.333	0.333	0.333	0.333	0.333	0.333	0.333	0.333	6.327	1.4494	3.6345	16	119	0.773343722554222	0	1
"120"	16	26	2	1	1.4	0	6	1	1	1.847	-0.1433	-0.1991	-5.0101	2.4085	6.7791	3.1587	4.8252	7.2517	-4.063	1.2236	3.2801	3.933	-7.875	-3.8698	8.8295	-4.4625	10.2654	0.6369	3.6135	-3.8094	0.3114	0.2507	0.2149	0.2955	0.4396	0.4687	0.2169	0.4692	0.2598	0.3963	0.3558	0.2311	0.3277	0.487	0.3289	0.2234	0.3175	0.3492	0.3833	6.327	1.6348	3.4982	16	120	0.613562701217103	1	0
"121"	16	43	2	-4	-5.6	1	5	-1	1	1.472	-3.651	-3.5769	-11.0592	1.5504	0.2561	-8.5512	-10.0034	-11.5995	-6.7642	0.5646	1.0273	-10.2691	-6.8718	-3.7564	-5.0253	-12.3789	-11.4666	0.7295	-10.2404	0.6521	0.333	0.333	0.333	0.333	0.333	0.333	0.333	0.333	0.333	0.333	0.333	0.333	0.333	0.333	0.333	0.333	0.333	0.333	0.333	6.327	1.6005	3.089	16	121	0.386622020306684	0	1
"122"	16	8	2	-4	-5.6	0	6	-1	1	1.594	-9.7532	-4.5126	-10.5176	-8.9054	-1.6243	-15.9754	-11.8128	-5.3404	-4.0165	-14.6291	1.0207	1.3974	-2.019	-0.9339	-7.1771	-2.2571	-7.9509	-4.7751	-2.0949	-1.0053	0.2577	0.3764	0.2922	0.3321	0.2957	0.2302	0.4446	0.2288	0.521	0.4956	0.222	0.3379	0.479	0.2332	0.2831	0.3521	0.2852	0.244	0.422	6.3329	1.6774	3.2779	16	122	0.466246580368023	0	1
"123"	16	7	2	4	5.6	1	5	1	1	1.543	7.4529	7.7557	2.7289	6.9585	4.007	17.8639	5.6934	9.3824	3.2842	12.29	6.4145	1.8908	1.1433	-2.9973	1.7437	-3.1106	8.5977	5.2555	9.26	4.9284	0.333	0.333	0.333	0.333	0.333	0.333	0.333	0.333	0.333	0.333	0.333	0.333	0.333	0.333	0.333	0.333	0.333	0.333	0.333	6.327	1.5436	3.0939	16	123	0.433728573381024	1	0
"124"	16	1	2	-4	-5.6	1	6	-1	1	1.788	-1.2543	-8.1595	-4.7848	-10.2142	1.9771	-9.9938	-6.0945	0.7657	-15.3398	0.2362	-10.4892	-0.2856	-0.22	0.7819	-5.1865	-11.6951	-9.1872	-6.7068	-7.7748	-7.7307	0.333	0.333	0.333	0.333	0.333	0.333	0.333	0.333	0.333	0.333	0.333	0.333	0.333	0.333	0.333	0.333	0.333	0.333	0.333	6.327	1.4735	3.2715	16	124	0.581097676751322	0	1
"125"	16	6	2	2	2.8	1	5	1	1	1.535	4.3539	2.9401	-0.6592	9.5344	-3.1251	0.7056	6.9407	3.8926	-2.6255	-6.6387	-0.0153	15.9329	7.0387	1.2461	4.6779	5.5875	4.3592	2.7021	-3.3015	3.2237	0.333	0.333	0.333	0.333	0.333	0.333	0.333	0.333	0.333	0.333	0.333	0.333	0.333	0.333	0.333	0.333	0.333	0.333	0.333	6.327	1.6369	3.1856	16	125	0.42853038103916	1	0
"126"	16	22	2	-4	-5.6	0	6	-1	1	1.487	-4.2255	-8.2136	-5.667	-4.1428	-2.8816	-10.8935	2.6317	-9.7826	-1.9471	-0.4203	-6.8404	-10.1383	-5.2398	5.6344	-13.8877	-3.0945	-2.0172	-11.0742	-12.6288	-5.6416	0.2325	0.3439	0.3132	0.2574	0.2044	0.2617	0.355	0.2003	0.2479	0.4517	0.3485	0.4275	0.34	0.2002	0.5091	0.3729	0.5134	0.4292	0.3212	6.33	1.4413	2.9373	16	126	0.396760667478018	0	1
"127"	16	33	2	1	1.4	1	5	1	1	1.477	6.2764	9.998	-1.1454	1.8043	5.0372	-2.7567	8.6742	3.5887	-1.7998	-2.9948	0.9779	3.2271	6.3061	-1.7957	5.3729	0.7529	-7.0871	-4.7916	-6.9102	6.6842	0.333	0.333	0.333	0.333	0.333	0.333	0.333	0.333	0.333	0.333	0.333	0.333	0.333	0.333	0.333	0.333	0.333	0.333	0.333	6.327	1.4697	2.9607	16	127	0.390013003549243	1	0
"128"	16	62	2	2	2.8	1	6	1	1	1.697	1.8738	3.0588	-8.8228	5.2951	4.9653	-8.3225	2.6072	11.5045	7.3753	5.7459	5.1501	3.988	3.2952	3.0541	-2.7742	6.6474	6.6048	-2.0816	6.2122	1.0357	0.333	0.333	0.333	0.333	0.333	0.333	0.333	0.333	0.333	0.333	0.333	0.333	0.333	0.333	0.333	0.333	0.333	0.333	0.333	6.327	1.6294	3.331	16	128	0.528861986252089	1	0
"129"	16	3	2	-1	-1.4	1	7	-1	1	2.083	-0.9694	-0.5032	1.0859	-9.6174	-0.1007	-4.3731	-5.4906	-0.1132	-0.1045	5.7947	-3.4121	-3.6673	10.1419	-4.2474	-1.3636	-6.1483	2.0117	-7.5726	6.9344	-5.9694	0.333	0.333	0.333	0.333	0.333	0.333	0.333	0.333	0.333	0.333	0.333	0.333	0.333	0.333	0.333	0.333	0.333	0.333	0.333	6.327	1.7044	3.7836	16	129	0.733809162278835	0	1
"130"	16	60	2	0	0	1	5	-1	1	1.626	-4.672	-0.2888	-2.9295	-4.2387	2.8642	-3.9032	10.7949	4.7218	-12.3912	-1.7685	8.0251	2.4405	1.1656	5.4881	-1.0879	-2.3919	-0.0384	1.6904	-0.8394	-1.2326	0.333	0.333	0.333	0.333	0.333	0.333	0.333	0.333	0.333	0.333	0.333	0.333	0.333	0.333	0.333	0.333	0.333	0.333	0.333	6.327	1.6378	3.2596	16	130	0.486123011125619	0	1
"131"	16	69	2	2	2.8	0	4	1	1	1.285	2.0218	9.867	5.4871	10.6553	-1.2866	2.9196	5.1116	2.9728	6.0183	2.3742	-4.3299	2.6345	9.1709	-0.4579	-5.7707	5.5607	-1.3491	-5.2334	-0.5663	9.8973	0.4364	0.3972	0.2305	0.4029	0.2658	0.417	0.2675	0.2965	0.5043	0.2302	0.204	0.4849	0.3788	0.3311	0.288	0.3221	0.3553	0.2359	0.2819	6.3304	1.7303	3.0192	16	131	0.250758718347183	1	0
"132"	16	37	2	-2	-2.8	0	7	-1	1	2.416	-2.753	-4.5662	0.3293	-0.1775	-5.784	-1.0096	-2.7232	-7.222	2.9696	-3.6801	-1.6317	2.7498	-0.8908	-4.2533	-9.3904	-2.8382	9.9907	-13.8657	-6.1819	-4.2019	0.3822	0.2672	0.5121	0.2563	0.3657	0.2868	0.3582	0.459	0.4166	0.362	0.2743	0.2474	0.2056	0.2972	0.524	0.3831	0.2503	0.2093	0.2654	6.3226	1.5371	3.967	16	132	0.882113280072569	0	1
"133"	16	53	2	0	0	0	6	-1	0	2.215	-3.9785	1.1026	-3.9755	-10.0805	-0.1566	0.1551	-9.5997	7.9214	-1.6834	-0.5131	1.3251	-1.9937	1.5702	-3.743	1.1614	7.2335	-0.5974	3.5689	2.0722	8.5914	0.452	0.3798	0.3532	0.2302	0.469	0.3734	0.3	0.4989	0.3333	0.2099	0.2666	0.3402	0.2569	0.2119	0.4634	0.2471	0.392	0.2098	0.3326	6.32	1.516	3.7486	16	133	0.795252403497099	0	1
"134"	16	28	2	4	5.6	0	6	1	1	1.637	7.8578	6.2297	7.7964	5.0454	7.7069	3.3103	3.6386	-0.517	4.6761	6.8009	1.4683	8.5328	15.354	9.3914	3.833	10.5951	-8.9579	3.604	9.4268	7.913	0.4597	0.3517	0.2058	0.3617	0.257	0.4439	0.2328	0.2966	0.2622	0.5073	0.4394	0.2915	0.3917	0.2281	0.3576	0.2644	0.443	0.2135	0.3281	6.3364	1.4944	3.138	16	134	0.492865298388998	1	0
"135"	16	46	2	0	0	1	7	-1	0	2.04	2.4047	-1.0797	5.5935	-6.1915	-2.3331	-1.3887	-5.9399	7.3772	-4.3581	-0.3276	3.4367	-13.2868	2.5518	1.7912	1.6574	-3.2351	0.0226	7.4066	0.8692	4.5021	0.333	0.333	0.333	0.333	0.333	0.333	0.333	0.333	0.333	0.333	0.333	0.333	0.333	0.333	0.333	0.333	0.333	0.333	0.333	6.327	1.7026	3.7579	16	135	0.712949807856125	0	1
"136"	16	55	2	2	2.8	0	7	1	1	2.111	1.0538	-1.3628	-0.1888	-0.1252	0.0157	8.1958	0.9425	9.8374	0.9758	1.8644	3.8715	4.6659	13.9038	-0.1639	-6.8873	11.9822	5.2789	0.6394	2.0332	1.1882	0.2588	0.2187	0.4283	0.2104	0.4388	0.2278	0.33	0.3652	0.2106	0.27	0.4995	0.4434	0.3342	0.4618	0.2109	0.3909	0.3181	0.3926	0.3169	6.3269	1.4813	3.6112	16	136	0.747161768866184	1	0
"137"	16	11	2	0	0	0	9	-1	0	2.766	0.6964	3.5143	-0.5017	6.8926	4.66	-6.0653	-3.5913	-4.5226	4.2082	1.6172	4.3506	-6.0506	7.1207	0.1163	-6.4051	-5.4714	6.7676	-7.0953	-4.8756	3.8944	0.2263	0.3584	0.5324	0.2821	0.2405	0.3842	0.2707	0.3035	0.4735	0.2761	0.3986	0.2457	0.4092	0.481	0.2606	0.3611	0.3354	0.2002	0.2786	6.3181	1.4388	4.2168	16	137	1.01740223324257	0	1
"138"	16	35	2	4	5.6	1	4	1	1	1.297	9.4434	1.8469	12.9167	3.7089	1.6884	10.9822	7.746	10.5266	1.7128	11.3353	8.7429	0.9023	5.4515	2.7716	-5.1632	10.9591	-0.0802	4.5605	1.3135	12.1435	0.333	0.333	0.333	0.333	0.333	0.333	0.333	0.333	0.333	0.333	0.333	0.333	0.333	0.333	0.333	0.333	0.333	0.333	0.333	6.327	1.6631	2.9647	16	138	0.260053905334307	1	0
"139"	16	51	2	-2	-2.8	0	6	-1	1	1.658	-3.1311	9.2898	-9.4294	-2.277	-3.6571	-12.0565	-6.5498	-0.7974	-4.3426	-4.3342	4.1245	4.0888	-5.5018	-2.3966	-4.249	-2.7581	0.8705	-5.8072	-9.1345	0.6132	0.2148	0.3324	0.3035	0.2454	0.4364	0.3431	0.3807	0.4494	0.2782	0.4406	0.3289	0.2443	0.3385	0.3116	0.2858	0.3213	0.4577	0.3262	0.2793	6.3184	1.5725	3.2418	16	139	0.505612056713103	0	1
"140"	16	20	2	2	2.8	1	6	-1	0	1.997	-2.0841	-0.4387	2.7072	7.4547	1.7643	0.0285	6.232	2.3214	0.5339	5.6071	-6.1305	6.143	3.6986	5.2317	-3.0539	9.988	11.0392	-2.768	-3.7427	10.6211	0.333	0.333	0.333	0.333	0.333	0.333	0.333	0.333	0.333	0.333	0.333	0.333	0.333	0.333	0.333	0.333	0.333	0.333	0.333	6.327	1.4152	3.4147	16	140	0.691646054433678	0	1
"141"	16	48	3	2	2.8	1	6	1	1	1.885	4.7245	-2.7098	9.9032	-0.3937	3.113	4.5381	13.2816	-1.3241	6.8506	0.6435	0.5367	4.9524	8.044	-1.568	-4.9415	-5.2492	5.7134	5.4123	-1.5848	5.5525	0.333	0.333	0.333	0.333	0.333	0.333	0.333	0.333	0.333	0.333	0.333	0.333	0.333	0.333	0.333	0.333	0.333	0.333	0.333	6.327	1.6424	3.5353	16	141	0.633927820899974	1	0
"142"	16	53	3	0	0	0	6	-1	0	1.854	-3.8444	-0.467	-7.2947	6.0299	-4.2068	11.8886	-1.5201	1.1696	2.3707	2.6911	5.6394	-0.7481	-7.8218	-4.0316	1.0176	-7.0022	5.6884	1.5201	-2.3488	2.1874	0.2719	0.3885	0.3374	0.4419	0.2013	0.256	0.302	0.5221	0.4063	0.2159	0.4927	0.2111	0.512	0.2131	0.3892	0.3209	0.2409	0.266	0.3341	6.3235	1.5918	3.4544	16	142	0.617345467143663	0	1
"143"	16	31	3	-1	-1.4	1	7	-1	1	2.192	2.9099	-1.9337	-4.6571	5.1849	-8.8289	5.7336	0.4758	-3.9568	5.3155	0.1429	-7.366	-4.6107	-2.0801	-7.9365	-0.8312	4.888	1.9734	-10.7422	0.0677	-0.5018	0.333	0.333	0.333	0.333	0.333	0.333	0.333	0.333	0.333	0.333	0.333	0.333	0.333	0.333	0.333	0.333	0.333	0.333	0.333	6.327	1.6435	3.8426	16	143	0.784814369085769	0	1
"144"	16	32	3	0	0	1	8	-1	0	2.339	0.8398	-0.3684	-1.8339	-8.443	-2.1163	-2.8323	0.8546	2.0163	9.0558	3.7762	-6.4887	1.7134	6.4643	-5.5464	7.7163	1.4967	-8.8255	-0.1089	-1.3765	4.7888	0.333	0.333	0.333	0.333	0.333	0.333	0.333	0.333	0.333	0.333	0.333	0.333	0.333	0.333	0.333	0.333	0.333	0.333	0.333	6.327	1.6894	4.0403	16	144	0.849723487602042	0	1
"145"	16	59	3	-1	-1.4	1	10	1	0	3.03	-6.1442	7.9559	-1.6468	-11.3723	5.662	-6.7644	4.7461	2.5376	-6.7709	2.6966	-2.8379	-2.464	-2.7365	-3.9828	6.3347	-4.1367	-1.5482	-1.5292	-3.9506	-3.2553	0.333	0.333	0.333	0.333	0.333	0.333	0.333	0.333	0.333	0.333	0.333	0.333	0.333	0.333	0.333	0.333	0.333	0.333	0.333	6.327	1.4309	4.4636	16	145	1.10856261952128	1	0
"146"	16	7	3	4	5.6	1	6	1	1	1.903	5.1143	4.7054	5.5907	8.9898	1.7288	6.8263	-4.9512	-1.8303	9.0205	1.2188	-2.1743	12.1643	11.6711	2.8039	11.1879	8.0922	7.1561	12.4901	5.5762	5.146	0.333	0.333	0.333	0.333	0.333	0.333	0.333	0.333	0.333	0.333	0.333	0.333	0.333	0.333	0.333	0.333	0.333	0.333	0.333	6.327	1.7127	3.6201	16	146	0.643431588314012	1	0
"147"	16	21	3	4	5.6	1	7	1	1	2.309	5.9924	-1.2945	7.6016	3.6614	3.3501	15.8005	12.3745	-2.9789	-0.2411	5.9803	9.9714	-0.0232	6.827	3.7487	12.8594	7.5895	6.4	6.2658	8.7028	0.6508	0.333	0.333	0.333	0.333	0.333	0.333	0.333	0.333	0.333	0.333	0.333	0.333	0.333	0.333	0.333	0.333	0.333	0.333	0.333	6.327	1.7313	4.0431	16	147	0.836814530372358	1	0
"148"	16	60	3	0	0	1	8	-1	1	2.467	-0.0163	-11.8242	4.9416	-3.5505	-2.5362	-8.0072	-0.5095	6.8304	-1.2396	0.8911	8.2439	-0.4401	-0.7169	5.0381	3.9885	1.4902	1.5918	2.0269	-1.6298	-6.4834	0.333	0.333	0.333	0.333	0.333	0.333	0.333	0.333	0.333	0.333	0.333	0.333	0.333	0.333	0.333	0.333	0.333	0.333	0.333	6.327	1.4301	3.9177	16	148	0.90300283754722	0	1
"149"	16	16	3	-2	-2.8	1	8	-1	1	2.521	2.0844	-3.9394	-7.7595	0.0364	-0.0717	-3.9966	-16.247	1.0569	-3.3099	-5.1768	-0.9296	-6.6542	1.0835	-2.4408	5.7463	2.1234	-3.1184	0.1923	-7.4645	-8.5953	0.333	0.333	0.333	0.333	0.333	0.333	0.333	0.333	0.333	0.333	0.333	0.333	0.333	0.333	0.333	0.333	0.333	0.333	0.333	6.327	1.6503	4.1881	16	149	0.924655648205783	0	1
"150"	16	64	3	-4	-5.6	0	7	-1	1	2.227	-1.0326	1.0402	-15.4241	-4.2951	-6.8564	-2.6914	-7.5082	-7.4147	1.4453	-7.5884	-0.143	-5.9261	-6.036	-11.4974	-10.654	-8.9528	-1.0297	-13.5159	-4.9019	1.7909	0.2369	0.3237	0.241	0.3583	0.2552	0.5034	0.4258	0.2091	0.4419	0.2136	0.4057	0.3257	0.246	0.3297	0.4875	0.2689	0.4317	0.3499	0.2715	6.3254	1.6554	3.8944	16	150	0.800655388275231	0	1
"151"	16	55	3	2	2.8	0	5	1	1	1.633	3.9187	6.0454	5.7679	3.927	5.4219	8.1297	-0.3057	-5.7591	0.3734	5.6495	-2.1011	-5.3214	-1.4495	6.3149	-3.0101	8.5149	9.862	-2.8322	9.5039	2.972	0.4282	0.2454	0.337	0.2143	0.5164	0.2918	0.505	0.3729	0.2672	0.2251	0.3102	0.4568	0.2786	0.2346	0.3617	0.2869	0.3551	0.4291	0.2056	6.322	1.6711	3.3171	16	151	0.490418813988328	1	0
"152"	16	14	3	4	5.6	0	6	1	1	1.743	4.7147	10.637	7.5106	-5.9674	10.415	5.465	10.7541	1.48	4.0644	9.6661	5.2532	12.2583	3.7349	11.6698	11.3891	5.7137	0.5511	1.007	2.177	-2.1313	0.3239	0.4363	0.226	0.3293	0.2854	0.4771	0.3747	0.4517	0.2619	0.3596	0.2719	0.3311	0.2223	0.264	0.3195	0.2369	0.3873	0.4868	0.2744	6.3201	1.5648	3.3105	16	152	0.555607766537884	1	0
"153"	16	49	3	4	5.6	1	6	1	1	1.873	4.6244	10.183	2.8584	3.3275	17.2219	7.3475	17.8286	6.7814	2.3479	-2.3243	1.5061	7.268	4.045	3.6422	7.3114	9.8727	2.0725	1.5082	3.0594	3.2983	0.333	0.333	0.333	0.333	0.333	0.333	0.333	0.333	0.333	0.333	0.333	0.333	0.333	0.333	0.333	0.333	0.333	0.333	0.333	6.327	1.4728	3.3571	16	153	0.627541423461951	1	0
"154"	16	30	3	-2	-2.8	1	6	-1	1	1.768	-1.3195	0.0661	-9.2117	0.9132	-5.1997	-4.7944	-9.0062	-2.5214	-4.316	-1.1331	-6.6755	5.0332	3.6265	-5.6971	2.2631	-1.592	-1.3279	-0.4256	0.1045	-15.8416	0.333	0.333	0.333	0.333	0.333	0.333	0.333	0.333	0.333	0.333	0.333	0.333	0.333	0.333	0.333	0.333	0.333	0.333	0.333	6.327	1.4614	3.2358	16	154	0.569848964215452	0	1
"155"	16	65	3	-2	-2.8	0	8	-1	1	2.746	-6.3896	-1.251	-1.7477	4.3438	-11.8168	-13.7267	-6.1252	5.7304	-2.9297	-7.4122	1.0127	-5.9184	-2.3288	-2.6616	-2.9111	-1.2963	-1.0682	-3.8024	3.5632	0.9553	0.5302	0.334	0.2058	0.5322	0.2948	0.245	0.3952	0.2579	0.2327	0.4547	0.2603	0.3401	0.393	0.3424	0.2852	0.2193	0.3138	0.4937	0.2012	6.3313	1.6565	4.413	16	155	1.01014530734578	0	1
"156"	16	19	3	1	1.4	1	6	1	1	1.885	2.8172	-3.1965	7.3774	3.0485	-3.1653	2.6191	-5.325	5.6241	10.7396	-5.2588	-2.6551	-4.871	6.4206	-0.021	-1.339	-1.5625	4.3921	-2.1106	5.7631	9.3843	0.333	0.333	0.333	0.333	0.333	0.333	0.333	0.333	0.333	0.333	0.333	0.333	0.333	0.333	0.333	0.333	0.333	0.333	0.333	6.327	1.4579	3.3528	16	156	0.633927820899974	1	0
"157"	16	36	3	-4	-5.6	0	7	-1	1	2.388	-10.2886	-8.3756	0.4774	-0.4012	-0.5455	-6.1592	-4.2041	-3.6918	-3.407	-12.3173	-3.7175	-11.215	-19.1495	-9.3758	-4.9687	-0.5255	-5.8788	-1.0154	-2.3713	-6.4492	0.3384	0.2322	0.3135	0.4663	0.3708	0.4968	0.3214	0.4916	0.3377	0.2469	0.2153	0.4381	0.2466	0.37	0.2844	0.4219	0.2098	0.3131	0.2191	6.3339	1.464	3.8558	16	157	0.870456195530356	0	1
"158"	16	57	3	-4	-5.6	1	6	-1	1	1.838	-1.8326	-0.1459	-11.4389	-6.7962	-13.1499	-2.1991	2.9442	-13.0281	-4.4374	-10.6988	-6.5501	-6.6504	-14.6431	0.2271	-7.68	-2.297	-2.7162	-7.5561	-0.4583	-3.2828	0.333	0.333	0.333	0.333	0.333	0.333	0.333	0.333	0.333	0.333	0.333	0.333	0.333	0.333	0.333	0.333	0.333	0.333	0.333	6.327	1.6792	3.522	16	158	0.608678023933495	0	1
"159"	16	33	3	1	1.4	1	6	1	1	1.966	1.7954	4.9638	-3.3314	0.6772	2.8538	2.6427	8.0649	-0.8624	1.7932	-3.7075	-7.3344	8.012	4.8638	-3.833	-9.0364	10.4873	4.3176	1.6649	-1.6859	4.36	0.333	0.333	0.333	0.333	0.333	0.333	0.333	0.333	0.333	0.333	0.333	0.333	0.333	0.333	0.333	0.333	0.333	0.333	0.333	6.327	1.4418	3.4165	16	159	0.676001021724975	1	0
"160"	16	39	3	0	0	0	8	-1	0	2.346	4.8371	-9.3898	-0.5939	-1.36	-2.9577	3.9415	-9.7171	-3.97	-7.0762	4.8441	3.5955	0.8223	5.7897	3.702	3.0069	5.4189	2.1475	4.3221	-3.6535	-4.7602	0.2608	0.2965	0.2369	0.2839	0.4633	0.428	0.2626	0.2362	0.3432	0.2935	0.2454	0.4423	0.2978	0.4113	0.3233	0.2748	0.4832	0.2222	0.5135	6.3186	1.4546	3.7965	16	160	0.852711750231284	0	1
"161"	16	40	3	1	1.4	0	4	1	1	1.383	1.418	5.1929	7.0275	-1.7595	2.9022	5.3694	-1.9151	-4.2645	5.0195	-3.7159	3.9798	5.7907	-4.2816	9.0895	4.1326	-11.5828	-0.4657	5.4658	-2.2651	1.3151	0.3475	0.294	0.461	0.2834	0.2	0.4318	0.207	0.2796	0.3816	0.3023	0.4383	0.2638	0.3948	0.4347	0.2398	0.307	0.3962	0.2693	0.4044	6.3366	1.7286	3.1338	16	161	0.324255052682621	1	0
"162"	16	52	3	-1	-1.4	0	5	-1	1	1.594	-5.4271	-6.2243	-0.9559	0.0901	0.6178	-0.8478	5.6818	-0.8871	-12.9597	-3.6647	-8.2165	7.8065	2.9328	-2.6957	0.8325	-0.2864	-1.0566	-7.0901	5.3568	-1.754	0.2184	0.2969	0.5301	0.2128	0.4253	0.3511	0.2355	0.3771	0.4814	0.4004	0.2429	0.338	0.2362	0.3872	0.4429	0.2541	0.4109	0.2619	0.2338	6.3369	1.7053	3.3114	16	162	0.466246580368023	0	1
"163"	16	63	3	4	5.6	1	5	1	1	1.631	5.9516	1.7365	-1.8028	6.7213	9.7061	9.0069	9.2282	9.1005	0.4708	5.7082	9.9344	5.3489	-3.4556	14.0935	4.5121	13.6707	9.629	-0.76	4.5385	0.2297	0.333	0.333	0.333	0.333	0.333	0.333	0.333	0.333	0.333	0.333	0.333	0.333	0.333	0.333	0.333	0.333	0.333	0.333	0.333	6.327	1.6796	3.3313	16	163	0.489193323638877	1	0
"164"	16	46	3	0	0	1	5	1	1	1.653	4.4195	3.1037	2.6837	3.8902	-4.5364	-8.951	1.0101	3.9828	-1.3118	-3.1451	-2.8473	2.3053	11.3758	3.4014	-4.6555	2.1817	-0.8317	-11.2935	0.7812	0.0901	0.333	0.333	0.333	0.333	0.333	0.333	0.333	0.333	0.333	0.333	0.333	0.333	0.333	0.333	0.333	0.333	0.333	0.333	0.333	6.327	1.7227	3.3866	16	164	0.502591818838887	1	0
"165"	16	20	3	2	2.8	1	6	1	1	1.922	1.5153	4.2027	0.1422	-0.8904	-0.7219	2.1617	2.4895	7.0463	-5.6007	0.7393	2.7522	4.747	-2.9326	13.3013	8.4894	-2.556	6.1123	-1.132	13.4043	1.5417	0.333	0.333	0.333	0.333	0.333	0.333	0.333	0.333	0.333	0.333	0.333	0.333	0.333	0.333	0.333	0.333	0.333	0.333	0.333	6.327	1.5112	3.4398	16	165	0.653366310548101	1	0
"166"	16	70	3	4	5.6	0	5	1	1	1.443	6.7146	-3.5988	8.6932	4.4026	7.9866	2.9546	12.3524	4.1246	0.11	9.3689	-5.6833	12.2699	8.3169	13.7751	2.6744	3.8899	3.1248	7.2484	8.2751	5.7414	0.2136	0.3105	0.2606	0.5034	0.2269	0.399	0.2936	0.2394	0.4634	0.263	0.372	0.2347	0.3458	0.2129	0.4453	0.4982	0.3008	0.3458	0.3941	6.323	1.4149	2.8602	16	166	0.366724279791734	1	0
"167"	16	11	3	0	0	0	7	-1	0	2.424	-1.2959	2.6941	-0.9369	4.3581	-4.1815	-10.5837	-3.6468	11.0146	-2.2869	5.4957	1.2215	0.6038	-3.7725	-4.0266	2.3939	6.3688	-3.2485	-5.5798	1.7946	4.7272	0.2696	0.4671	0.4372	0.3366	0.4383	0.2177	0.5243	0.2265	0.5057	0.2019	0.2904	0.3534	0.259	0.4186	0.3472	0.2861	0.2491	0.2114	0.2887	6.3287	1.6711	4.1084	16	167	0.885419068207068	0	1
"168"	16	37	3	-2	-2.8	0	8	-1	1	2.932	-1.8375	-14.6782	0.945	0.2445	2.9161	-7.6607	-3.1645	2.4606	-4.6979	-2.8796	-1.6606	-7.3654	-3.5098	2.6848	-11.1767	2.0599	-0.674	-0.0218	-9.3376	-0.0209	0.4815	0.5317	0.335	0.3031	0.386	0.289	0.442	0.2634	0.2343	0.2594	0.3443	0.2615	0.2086	0.5286	0.2723	0.2004	0.3242	0.3725	0.2814	6.319	1.6913	4.6332	16	168	1.07568478402441	0	1
"169"	16	25	3	0	0	0	5	1	1	1.658	-3.5571	2.8858	4.7641	1.2789	0.0763	-5.628	-1.6819	3.2683	-5.3782	0.4667	-1.2235	-8.3797	11.5039	7.3095	1.8172	3.9668	-2.6339	-2.1467	-0.1361	-8.008	0.4157	0.3377	0.2125	0.3007	0.4322	0.2018	0.4882	0.2803	0.2371	0.2002	0.5006	0.3624	0.2201	0.4111	0.3673	0.2322	0.3735	0.3161	0.4334	6.3233	1.5968	3.2592	16	169	0.505612056713103	1	0
"170"	16	27	3	2	2.8	0	5	-1	0	1.713	0.2588	-2.1168	4.7956	-0.449	-1.2243	-4.0796	0.835	5.7963	-0.6844	5.516	8.5859	9.1782	4.5458	-6.113	1.8852	3.8556	11.8769	10.9798	4.1086	-1.3471	0.2976	0.2204	0.397	0.4925	0.4637	0.2778	0.3906	0.2642	0.3903	0.26	0.2998	0.2109	0.4188	0.2381	0.457	0.2438	0.4859	0.2051	0.3096	6.3232	1.507	3.2308	16	170	0.538246219341983	0	1
"171"	16	29	3	-4	-5.6	1	7	-1	1	2.009	-0.9728	-2.8482	-6.6032	-11.9743	1.1296	-11.383	-7.283	-16.4013	-9.4465	-13.5506	-3.5239	-3.8776	-4.2846	-6.8545	-3.7239	-5.0326	-3.4991	-3.1077	2.4626	-0.2678	0.333	0.333	0.333	0.333	0.333	0.333	0.333	0.333	0.333	0.333	0.333	0.333	0.333	0.333	0.333	0.333	0.333	0.333	0.333	6.327	1.4158	3.4268	16	171	0.697637085832797	0	1
"172"	16	23	3	-2	-2.8	0	8	-1	1	2.51	1.1136	-1.3611	-2.3671	-7.7317	0.0933	-0.4741	-12.6348	-8.9043	5.3716	-2.344	-6.3977	-4.4302	5.6657	-1.3126	-5.1368	-2.1744	-11.4194	0.0304	2.2942	-2.8083	0.3282	0.4551	0.2416	0.3163	0.2677	0.4641	0.2365	0.501	0.2255	0.3785	0.2596	0.3123	0.2674	0.3051	0.369	0.2071	0.3024	0.4624	0.4227	6.3226	1.5909	4.1108	16	172	0.920282753143692	0	1
"173"	16	42	3	4	5.6	0	4	1	1	1.258	3.8496	0.6158	6.4923	4.0514	3.8357	-4.3862	12.309	3.881	-0.9551	3.8737	0.6794	3.8886	15.0265	11.208	11.0477	5.5269	13.2604	10.6783	3.7253	5.3421	0.2038	0.4327	0.2951	0.3552	0.2286	0.4277	0.252	0.4644	0.3631	0.3284	0.4511	0.3904	0.3112	0.2744	0.2307	0.3775	0.2245	0.4208	0.3037	6.3354	1.6207	2.8921	16	173	0.229523158278249	1	0
"174"	16	54	3	1	1.4	0	8	1	1	2.596	0.277	-2.3612	6.5498	-6.8695	3.3475	-0.9006	1.4962	1.5923	-4.4427	6.7723	6.9074	0.5406	9.2363	10.172	4.6183	-1.1881	-7.9804	2.6667	-2.3945	-1.2374	0.2648	0.2115	0.4515	0.4916	0.3313	0.4576	0.271	0.3757	0.4251	0.2952	0.2517	0.339	0.2901	0.4567	0.2461	0.295	0.2137	0.2577	0.3982	6.3236	1.5589	4.163	16	174	0.953971798841844	1	0
"175"	16	26	3	1	1.4	0	5	-1	0	1.632	-1.3836	-2.0335	-4.8996	-4.6748	5.9465	1.501	3.5402	3.4019	1.8735	-8.6864	2.8272	3.597	0.5571	8.8477	7.608	2.5162	-2.6327	-1.4551	12.6181	0.3167	0.3063	0.4448	0.4047	0.2301	0.2866	0.3252	0.5255	0.2725	0.3295	0.2133	0.3039	0.4794	0.2647	0.3093	0.2532	0.2139	0.4481	0.4935	0.2254	6.3298	1.6074	3.2497	16	175	0.489806256541915	0	1
"176"	16	4	3	0	0	1	8	-1	0	2.459	-3.2281	-0.2833	-4.7023	0.559	5.0784	0.31	-7.7159	1.8422	-6.5374	6.2594	0.0298	1.4797	-3.5147	-3.9923	-2.0342	-3.5265	8.3371	11.3991	3.0236	-2.2353	0.333	0.333	0.333	0.333	0.333	0.333	0.333	0.333	0.333	0.333	0.333	0.333	0.333	0.333	0.333	0.333	0.333	0.333	0.333	6.327	1.5578	4.0268	16	176	0.899754763234056	0	1
"177"	16	38	3	-1	-1.4	0	7	-1	1	1.986	1.1995	1.9915	-4.3339	-2.4818	0.5319	-9.4117	-8.8587	-5.0122	-8.7061	1.6572	-0.8034	2.2851	-7.4453	7.5466	2.688	1.4137	6.2436	1.8388	-7.1749	-0.8924	0.3892	0.2631	0.3332	0.2718	0.2252	0.2519	0.3234	0.2078	0.3366	0.4172	0.3597	0.413	0.3475	0.432	0.307	0.4354	0.3852	0.2661	0.3609	6.3261	1.4041	3.4036	16	177	0.686122565622981	0	1
"178"	16	10	3	-1	-1.4	0	8	-1	1	2.463	-5.7109	4.1792	-13.8404	-8.5247	0.987	-1.8099	-5.7092	6.099	-2.5065	2.4456	-3.4735	0.6916	0.9631	-2.2996	4.9957	-0.5854	-4.4017	4.199	2.2689	-6.226	0.2525	0.483	0.2864	0.2231	0.3813	0.2384	0.52	0.2163	0.3066	0.4891	0.2201	0.4527	0.3002	0.2278	0.3331	0.4568	0.3765	0.345	0.2196	6.3287	1.4997	3.9803	16	178	0.901380119138401	0	1
"179"	16	18	3	0	0	1	6	1	1	1.687	2.8604	2.5541	2.5021	8.2428	11.043	-1.7492	-0.6552	1.5976	1.0871	-3.435	7.6032	2.3495	-1.1886	-5.3775	-5.3158	-8.7636	-2.2647	-3.577	-5.1054	-2.8607	0.333	0.333	0.333	0.333	0.333	0.333	0.333	0.333	0.333	0.333	0.333	0.333	0.333	0.333	0.333	0.333	0.333	0.333	0.333	6.327	1.6504	3.3545	16	179	0.522951803563831	1	0
"180"	16	45	3	-1	-1.4	1	7	-1	1	2.039	-2.6311	3.9637	1.5757	2.4941	-2.9093	-10.5554	-7.9231	0.3495	5.6861	-2.4017	-1.544	4.2746	2.3225	2.0687	-9.6819	1.4972	-11.2513	-4.7393	0.7633	1.4377	0.333	0.333	0.333	0.333	0.333	0.333	0.333	0.333	0.333	0.333	0.333	0.333	0.333	0.333	0.333	0.333	0.333	0.333	0.333	6.327	1.6057	3.6562	16	180	0.712459491592318	0	1
"181"	16	12	3	1	1.4	0	6	1	1	1.71	4.0462	-4.6566	-1.5563	-3.0391	4.8057	3.442	2.6313	-5.7952	10.1702	3.7131	1.7537	-6.6409	4.3466	-4.7908	4.8034	1.2127	12.3943	-2.5567	1.5397	3.7907	0.313	0.3728	0.2667	0.3013	0.435	0.5036	0.2361	0.2037	0.2853	0.2545	0.4481	0.2147	0.3369	0.43	0.2601	0.4345	0.3648	0.2722	0.3892	6.3224	1.7076	3.4276	16	181	0.536493370514568	1	0
"182"	16	2	3	-2	-2.8	1	6	-1	1	1.969	0.5418	-1.6673	-0.4052	-10.8944	1.2842	-2.8623	-6.698	-12.2775	-2.8257	-4.1011	4.1198	6.1961	-7.1266	-10.499	2.5911	-2.6931	-0.1622	-0.2349	-2.5348	-5.151	0.333	0.333	0.333	0.333	0.333	0.333	0.333	0.333	0.333	0.333	0.333	0.333	0.333	0.333	0.333	0.333	0.333	0.333	0.333	6.327	1.5809	3.5536	16	182	0.677525799656989	0	1
"183"	16	28	3	4	5.6	0	6	1	1	1.478	2.2393	7.0935	-1.4836	7.5992	4.144	5.3868	2.8301	0.1968	8.0308	16.3167	11.8736	6.4529	6.1618	13.7586	2.0994	2.9018	4.0043	-3.9476	8.5476	9.1955	0.3178	0.2848	0.3654	0.2291	0.2002	0.4035	0.2303	0.3506	0.3249	0.4963	0.222	0.3585	0.4729	0.3429	0.2416	0.4192	0.2038	0.4854	0.3717	6.321	1.5267	3.0127	16	183	0.39068982252601	1	0
"184"	16	6	3	2	2.8	1	5	1	1	1.538	6.8829	3.1101	0.9097	8.4743	3.5681	5.6396	-2.1315	1.1887	7.0044	-1.5204	7.2915	-5.4614	1.7985	2.4319	-5.9581	11.1393	10.3821	4.1822	-3.6464	-0.6764	0.333	0.333	0.333	0.333	0.333	0.333	0.333	0.333	0.333	0.333	0.333	0.333	0.333	0.333	0.333	0.333	0.333	0.333	0.333	6.327	1.6316	3.1721	16	184	0.430482871083452	1	0
"185"	16	67	3	0	0	0	4	1	1	1.061	1.2446	3.0399	9.9186	7.3548	-0.8806	-0.8932	-0.4468	-3.5062	-1.9821	-5.4823	5.4469	-4.2496	-1.034	-1.299	-9.3857	-0.3422	-7.8398	3.9282	3.9128	3.9182	0.2861	0.2181	0.4336	0.2691	0.4225	0.2035	0.2786	0.5321	0.2622	0.3085	0.4761	0.2424	0.2746	0.3684	0.434	0.2714	0.3101	0.2581	0.4724	6.3218	1.6456	2.7121	16	185	0.059211859631846	1	0
"186"	16	69	3	2	2.8	0	4	1	1	1.283	4.8651	3.0557	6.4214	7.9564	-3.5414	4.9299	12.3143	-1.5645	-0.9643	-6.9645	1.6897	-2.2028	2.0878	5.8394	4.9435	0.1396	8.0661	5.681	7.9583	-3.6171	0.5199	0.3017	0.2202	0.272	0.5312	0.2299	0.3368	0.4457	0.3407	0.3966	0.362	0.4176	0.268	0.3077	0.2006	0.2685	0.243	0.3874	0.282	6.3317	1.7283	3.017	16	186	0.249201085633499	1	0
"187"	16	17	3	-1	-1.4	1	4	-1	1	1.138	-3.8408	-4.1552	-3.5329	5.0443	-0.6724	-0.3616	7.2768	-0.4925	-3.8922	-5.7657	5.3797	-0.8086	0.4715	2.6027	-13.115	-0.2309	5.1154	-2.7177	-5.8864	-6.7732	0.333	0.333	0.333	0.333	0.333	0.333	0.333	0.333	0.333	0.333	0.333	0.333	0.333	0.333	0.333	0.333	0.333	0.333	0.333	6.327	1.6115	2.7719	16	187	0.129272335704139	0	1
"188"	16	58	3	-2	-2.8	1	4	-1	1	1.126	-2.6424	2.0357	0.9047	-2.2912	-8.0685	-3.3065	-3.3301	-4.5945	-11.3007	-9.5931	3.8428	-3.0686	3.7424	-9.6094	4.6924	-0.1954	-5.3688	1.6652	0.6473	-9.1623	0.333	0.333	0.333	0.333	0.333	0.333	0.333	0.333	0.333	0.333	0.333	0.333	0.333	0.333	0.333	0.333	0.333	0.333	0.333	6.327	1.4861	2.6269	16	188	0.118671529717499	0	1
"189"	16	34	3	2	2.8	1	4	1	1	1.062	2.4284	8.5365	9.9448	11.9123	2.9304	8.3274	-4.5853	-1.8808	0.6559	-8.8283	-0.8562	2.3967	0.2456	4.9546	-0.2938	3.9347	1.4455	3.6847	7.7052	5.0682	0.333	0.333	0.333	0.333	0.333	0.333	0.333	0.333	0.333	0.333	0.333	0.333	0.333	0.333	0.333	0.333	0.333	0.333	0.333	6.327	1.6994	2.779	16	189	0.0601539228197471	1	0
"190"	16	1	3	-4	-5.6	1	3	-1	1	0.795	-1.6836	-1.8745	-9.9484	1.1336	-4.9458	-19.4932	-0.3983	-4.3467	-2.1139	0.052	-5.5036	-4.0606	-6.3224	-6.2694	-11.1298	-11.3802	-10.7401	-1.9685	-6.2916	-4.9121	0.333	0.333	0.333	0.333	0.333	0.333	0.333	0.333	0.333	0.333	0.333	0.333	0.333	0.333	0.333	0.333	0.333	0.333	0.333	6.327	1.6113	2.4123	16	190	-0.229413164327805	0	1
"191"	16	41	3	2	2.8	0	2	1	1	0.721	3.308	6.4535	6.5805	-1.4306	-0.4277	-3.3379	-2.0981	4.3717	0.3869	3.0802	0.6339	13.9443	2.7374	8.2391	1.0646	1.8059	-8.949	4.9191	6.8998	7.4741	0.2882	0.4841	0.2857	0.4025	0.2297	0.2622	0.3105	0.2298	0.3579	0.325	0.4192	0.3699	0.269	0.2326	0.3008	0.4004	0.4468	0.3186	0.3969	6.3297	1.593	2.3221	16	191	-0.327116141697188	1	0
"192"	16	51	3	-2	-2.8	0	3	-1	1	0.652	-0.2776	-4.4871	-8.1908	-10.3079	-0.3453	-4.8191	7.9616	-5.1191	-0.6567	2.4616	-9.4336	7.493	-1.5064	-9.0156	-0.8131	-4	-5.9725	-7.6286	-0.6837	-2.4932	0.2123	0.2491	0.4176	0.2418	0.3611	0.5176	0.2066	0.2945	0.2055	0.3275	0.4475	0.3644	0.2905	0.5143	0.4177	0.269	0.3552	0.4084	0.2334	6.334	1.6848	2.3532	16	192	-0.427710717055484	0	1
"193"	16	5	3	1	1.4	1	3	1	1	0.921	0.3015	2.7906	0.5495	7.5075	4.3663	-1.052	-0.5193	-9.2891	-8.7587	7.4021	0.2476	9.9677	4.6816	2.3585	2.004	-4.1997	0.7454	6.0333	3.261	0.8922	0.333	0.333	0.333	0.333	0.333	0.333	0.333	0.333	0.333	0.333	0.333	0.333	0.333	0.333	0.333	0.333	0.333	0.333	0.333	6.327	1.4218	2.355	16	193	-0.0822952427268302	1	0
"194"	16	56	3	4	5.6	0	3	1	1	0.768	2.4703	3.9179	-2.2412	9.4862	5.2521	3.0549	-0.0795	-4.5726	11.4498	12.3654	2.0668	-2.13	7.0764	10.7011	9.5765	10.7385	8.4788	7.8734	9.9654	5.1489	0.5295	0.227	0.4279	0.2536	0.3211	0.3884	0.2416	0.3293	0.2753	0.2485	0.5089	0.3073	0.3655	0.4329	0.2437	0.2962	0.2626	0.3072	0.3628	6.3294	1.4535	2.2354	16	194	-0.263965545834465	1	0
"195"	16	43	3	-4	-5.6	1	2	-1	1	0.526	-7.1304	-6.393	-12.6719	-4.8964	-1.856	-10.028	-8.2748	-9.7475	-7.7819	-18.8096	-1.7961	-2.5224	-5.3604	-4.3429	4.2687	-8.5536	-1.5484	-2.8777	0.3335	-2.3437	0.333	0.333	0.333	0.333	0.333	0.333	0.333	0.333	0.333	0.333	0.333	0.333	0.333	0.333	0.333	0.333	0.333	0.333	0.333	6.327	1.5008	2.0267	16	195	-0.642454066244427	0	1
"196"	16	13	3	2	2.8	0	3	1	1	0.996	1.6367	6.3163	3.7479	5.0388	4.7782	-2.858	0.5148	1.8864	6.0069	7.3763	-8.2463	-1.6958	-3.7213	9.3372	0.1718	-4.0918	7.3247	11.5707	4.3819	5.8915	0.2445	0.3534	0.4801	0.2538	0.3935	0.2908	0.5083	0.3729	0.2239	0.3273	0.2141	0.2798	0.3437	0.2516	0.4042	0.2313	0.4027	0.5277	0.2294	6.3331	1.5044	2.5132	16	196	-0.00400802139753882	1	0
"197"	16	61	3	1	1.4	1	4	1	1	1.172	-1.3241	3.1604	6.2336	2.0455	6.8073	12.297	-9.0416	8.4923	-2.5362	-3.264	4.0366	1.8788	1.5262	2.904	-3.2696	3.9186	-1.8308	-4.2026	-0.542	2.334	0.333	0.333	0.333	0.333	0.333	0.333	0.333	0.333	0.333	0.333	0.333	0.333	0.333	0.333	0.333	0.333	0.333	0.333	0.333	6.327	1.4091	2.5895	16	197	0.158711691154821	1	0
"198"	16	66	3	-1	-1.4	0	7	-1	1	2.103	1.2917	4.2143	-9.3386	0.557	-6.0805	-5.0227	2.6921	3.7539	0.1121	0.0936	4.5345	-7.6633	2.0191	-0.2795	-13.8666	-3.5016	3.8847	-3.326	0.0768	-3.6383	0.2794	0.3768	0.2954	0.2327	0.5031	0.3537	0.2588	0.3571	0.3884	0.3118	0.4676	0.2438	0.5035	0.2379	0.2018	0.292	0.3593	0.3878	0.2818	6.3327	1.6909	3.8038	16	198	0.743364896720563	0	1
"199"	16	47	3	1	1.4	1	7	1	1	2.225	2.7912	-1.8358	3.1819	-4.6017	8.3402	0.9344	0.7008	-2.7362	10.5452	-1.102	-2.252	3.6648	-4.2992	9.0932	3.4443	0.6618	6.0703	-8.3967	4.8944	-2.0514	0.333	0.333	0.333	0.333	0.333	0.333	0.333	0.333	0.333	0.333	0.333	0.333	0.333	0.333	0.333	0.333	0.333	0.333	0.333	6.327	1.5889	3.8257	16	199	0.799756915618204	1	0
"200"	16	22	3	-4	-5.6	0	4	-1	1	1.151	-2.5171	-5.5061	-7.3546	8.0611	-10.0667	-2.1868	-5.5097	-6.8452	-11.4819	-5.1078	-0.7883	-11.882	-9.3893	-2.7763	-3.0466	-14.1991	-5.1814	-2.7852	-2.6041	-10.41	0.4185	0.2108	0.4092	0.3165	0.2723	0.5032	0.202	0.2983	0.3412	0.2821	0.4822	0.2243	0.4306	0.3271	0.4434	0.3661	0.2711	0.2096	0.3241	6.3325	1.623	2.7683	16	200	0.140631129739746	0	1
"201"	16	3	3	-1	-1.4	1	5	-1	1	1.425	-5.5199	-4.7757	5.639	-2.1984	-3.0786	2.8114	0.0372	-9.1612	-5.9954	1.2097	-3.6479	-5.1474	-2.4081	-11.8425	-2.3136	6.8096	-1.3251	2.8375	3.7721	5.3981	0.333	0.333	0.333	0.333	0.333	0.333	0.333	0.333	0.333	0.333	0.333	0.333	0.333	0.333	0.333	0.333	0.333	0.333	0.333	6.327	1.6831	3.1094	16	201	0.354171813720614	0	1
"202"	16	9	3	-2	-2.8	0	3	-1	1	1.091	-4.8902	-12.5621	-11.4227	-0.576	-5.8426	4.2656	4.7442	-6.8027	-1.0711	-0.0068	-9.2387	-3.5408	0.8833	6.3301	-7.4952	-0.4869	-4.1202	-1.8673	-1.0867	-2.4725	0.21	0.4213	0.4857	0.4597	0.3875	0.3201	0.2681	0.3862	0.3031	0.4252	0.3746	0.2674	0.2974	0.3696	0.2924	0.3899	0.2084	0.2509	0.2035	6.3212	1.6033	2.7079	16	202	0.0870947068509337	0	1
"203"	16	50	3	-4	-5.6	0	5	-1	1	1.446	-6.6074	0.2465	-0.8436	-7.1827	-4.8504	-11.9633	-5.7309	-7.1654	-4.3075	3.033	0.7702	-12.3058	-4.5921	-3.7471	-3.3453	-7.8725	-18.392	-3.8403	-9.7763	-2.4372	0.2127	0.3722	0.445	0.2054	0.2716	0.2107	0.4825	0.2271	0.3383	0.4131	0.5278	0.4159	0.286	0.2261	0.2774	0.3681	0.4736	0.3367	0.2327	6.3228	1.4934	2.9635	16	203	0.368801123736573	0	1
"204"	16	68	3	1	1.4	0	8	1	1	2.54	-0.9946	-5.1048	13.5671	2.7874	-0.3134	-0.763	3.3889	-4.0636	10.5239	3.8084	2.6017	0.5949	5.0843	1.5552	-3.6742	6.6987	-6.7753	-0.4571	-3.1966	2.6591	0.3445	0.3057	0.3406	0.4154	0.3343	0.2438	0.4111	0.2144	0.3124	0.2126	0.2492	0.412	0.4687	0.3045	0.2007	0.2882	0.5104	0.4234	0.3318	6.3238	1.5326	4.0907	16	204	0.932164081030445	1	0
"205"	16	44	3	-2	-2.8	1	5	-1	1	1.576	-7.4147	-1.8602	-1.1639	-7.7217	-8.6162	3.1305	-3.3065	-7.8788	-4.0844	-8.1403	2.0638	-0.1137	0.0758	-7.4281	-7.641	-6.2246	7.0772	-5.3455	2.8639	4.8886	0.333	0.333	0.333	0.333	0.333	0.333	0.333	0.333	0.333	0.333	0.333	0.333	0.333	0.333	0.333	0.333	0.333	0.333	0.333	6.327	1.456	3.0432	16	205	0.454889991435687	0	1
"206"	16	35	3	4	5.6	1	4	1	1	1.075	0.8424	2.4626	10.511	5.3833	4.9265	6.4983	4.4761	2.1241	3.225	5.1305	2.5114	2.6455	18.5139	5.6115	4.1667	13.5688	8.2219	5.9253	-5.0835	12.2097	0.333	0.333	0.333	0.333	0.333	0.333	0.333	0.333	0.333	0.333	0.333	0.333	0.333	0.333	0.333	0.333	0.333	0.333	0.333	6.327	1.614	2.7091	16	206	0.0723206615796261	1	0
"207"	16	15	3	-4	-5.6	1	6	-1	1	1.81	-1.993	-2.5924	-0.17	-3.6662	-7.7473	-1.1788	-4.6655	-12.6159	-5.0303	-3.0555	-4.7141	-2.6968	-12.4044	-7.1654	1.8611	-4.9583	-13.2742	-18.2756	-5.2703	-2.1356	0.333	0.333	0.333	0.333	0.333	0.333	0.333	0.333	0.333	0.333	0.333	0.333	0.333	0.333	0.333	0.333	0.333	0.333	0.333	6.327	1.4155	3.2443	16	207	0.593326845277734	0	1
"208"	16	62	3	2	2.8	1	3	1	1	0.78	7.0214	12.6242	9.5618	-4.7686	0.5258	2.153	0.3617	-0.3984	-6.5633	1.8806	6.0727	6.3044	1.5895	-4.8895	7.2148	3.5668	1.7145	9.1368	1.7979	0.5814	0.333	0.333	0.333	0.333	0.333	0.333	0.333	0.333	0.333	0.333	0.333	0.333	0.333	0.333	0.333	0.333	0.333	0.333	0.333	6.327	1.6235	2.4146	16	208	-0.2484613592985	1	0
"209"	16	8	3	-4	-5.6	0	6	-1	1	1.859	-9.0018	-9.3917	-2.138	-6.2328	-6.0405	-3.494	-9.9652	-9.6051	-11.7882	-5.6171	-5.2485	-14.1548	-2.1889	1.5876	-3.4729	-3.2354	8.8133	-4.0409	-9.9523	-6.5783	0.4441	0.2135	0.3985	0.339	0.222	0.3092	0.463	0.3893	0.4236	0.3139	0.2334	0.5164	0.2181	0.2665	0.2216	0.4625	0.3624	0.2772	0.2517	6.326	1.5129	3.3761	16	209	0.620038708739307	0	1
"210"	16	24	3	-1	-1.4	0	3	-1	1	0.961	-6.3474	-4.7543	-2.3488	-1.7747	-6.5702	-10.2679	-2.7724	-1.1993	-1.3199	-2.5642	7.6541	-1.5013	-6.2188	2.5343	4.3816	5.9448	7.8716	1.2184	-5.2832	-5.0771	0.4652	0.4184	0.2443	0.314	0.3784	0.4992	0.2404	0.2696	0.3194	0.3797	0.2011	0.2971	0.3559	0.5298	0.3034	0.2672	0.2113	0.3759	0.2662	6.3365	1.5441	2.5119	16	210	-0.0397808700118446	0	1
"211"	16	20	4	2	2.8	1	5	1	1	1.484	3.0306	-2.9881	4.7925	-0.1171	-3.6568	-0.3909	6.7063	17.2243	-0.0063	0.4256	5.6739	4.7985	10.6074	3.2789	2.9657	0.5181	-1.095	-3.3894	0.4152	7.134	0.333	0.333	0.333	0.333	0.333	0.333	0.333	0.333	0.333	0.333	0.333	0.333	0.333	0.333	0.333	0.333	0.333	0.333	0.333	6.327	1.6849	3.185	16	211	0.394741144745189	1	0
"212"	16	52	4	-1	-1.4	0	5	-1	1	1.457	-0.3503	-2.2382	0.6613	0.6476	7.0987	4.6536	-10.4334	-6.8758	-7.3925	0.3373	-4.7161	-3.742	-3.2528	-5.303	-2.8054	-1.4089	4.607	-3.0513	-4.2526	9.5074	0.2511	0.481	0.2613	0.3466	0.2357	0.3001	0.4346	0.314	0.4948	0.3459	0.2148	0.2473	0.2731	0.2037	0.3417	0.3862	0.4572	0.2512	0.4963	6.3366	1.5235	2.9905	16	212	0.376379527213068	0	1
"213"	16	56	4	4	5.6	0	4	1	1	1.181	3.4219	3.9514	8.4097	2.9038	0.0209	16.0826	13.1269	4.2152	4.9226	6.2241	5.5232	1.8943	2.6426	2.4801	12.4498	-1.9095	3.0977	13.0499	-1.726	9.3721	0.3824	0.2695	0.3206	0.4679	0.312	0.2754	0.3028	0.2207	0.3839	0.2576	0.3197	0.4547	0.3547	0.2047	0.4056	0.3179	0.2602	0.3209	0.4938	6.3248	1.6747	2.8648	16	213	0.166361537215225	1	0
"214"	16	62	4	2	2.8	1	7	-1	0	2.113	0.0036	3.6769	-3.2653	6.6411	5.3123	2.1746	1.6682	-10.3191	-3.3769	-0.9807	3.1701	7.5644	3.3122	8.3816	4.6127	3.303	11.6084	8.479	-1.1747	6.7791	0.333	0.333	0.333	0.333	0.333	0.333	0.333	0.333	0.333	0.333	0.333	0.333	0.333	0.333	0.333	0.333	0.333	0.333	0.333	6.327	1.7232	3.8475	16	214	0.74810873863392	0	1
"215"	16	61	4	1	1.4	1	5	-1	0	1.565	-0.6261	9.3928	-1.3543	-0.003	5.2925	-1.7675	7.6385	-0.0956	-5.3459	9.7608	3.5704	-2.4388	6.8574	-1.5766	-6.4783	8.1946	3.4476	-3.3532	-3.66	2.2684	0.333	0.333	0.333	0.333	0.333	0.333	0.333	0.333	0.333	0.333	0.333	0.333	0.333	0.333	0.333	0.333	0.333	0.333	0.333	6.327	1.5604	3.132	16	215	0.447885823992117	0	1
"216"	16	10	4	-1	-1.4	0	5	-1	1	1.15	-4.8046	-7.8517	-1.9579	0.2017	-9.9987	3.1585	0.5057	-2.3104	2.5999	2.243	2.2492	-8.4288	-9.7765	9.7143	-1.6431	-1.6065	4.5215	-1.306	-2.7482	-1.9224	0.3229	0.2108	0.3251	0.2156	0.3847	0.3193	0.4118	0.2172	0.3382	0.4364	0.4965	0.2425	0.2055	0.3825	0.343	0.3907	0.3067	0.5285	0.2553	6.3332	1.5099	2.6672	16	216	0.139761942375159	0	1
"217"	16	31	4	-1	-1.4	1	4	-1	1	1.316	2.7328	-7.8985	-7.7899	0.7241	2.3846	-2.7759	-8.4518	7.6205	1.2675	-5.6047	-6.7009	4.9277	1.9669	-3.8433	1.6289	-8.9152	3.9631	-2.5548	0.2548	0.2268	0.333	0.333	0.333	0.333	0.333	0.333	0.333	0.333	0.333	0.333	0.333	0.333	0.333	0.333	0.333	0.333	0.333	0.333	0.333	6.327	1.4649	2.7835	16	217	0.274596832903126	0	1
"218"	16	7	4	4	5.6	1	3	1	1	0.915	2.8729	8.2769	-7.6068	4.4133	6.2878	3.3364	10.7915	8.6518	10.1634	10.7091	8.2388	10.2847	-5.0978	8.5761	1.6101	9.8221	5.6254	3.8767	5.731	7.1159	0.333	0.333	0.333	0.333	0.333	0.333	0.333	0.333	0.333	0.333	0.333	0.333	0.333	0.333	0.333	0.333	0.333	0.333	0.333	6.327	1.4659	2.3825	16	218	-0.0888312137066157	1	0
"219"	16	50	4	-4	-5.6	0	3	-1	1	0.901	-10.4161	-12.3615	0.9739	-2.9289	-8.8418	1.0828	-3.4406	-12.1253	-9.1546	-12.3912	3.1493	-8.959	3.6194	-4.9976	-3.1717	-7.0334	-4.0608	-4.6737	-7.7247	-6.835	0.3734	0.2916	0.3774	0.2016	0.271	0.3706	0.4528	0.2783	0.2341	0.4103	0.378	0.4383	0.291	0.2033	0.3342	0.3873	0.512	0.2837	0.2363	6.3253	1.6536	2.5518	16	219	-0.104250021373799	0	1
"220"	16	36	4	-4	-5.6	0	3	-1	1	0.596	-6.6252	-10.7969	-0.1513	-3.0096	-4.1975	-6.8212	-6.877	-13.2563	-13.6866	-2.1438	-4.514	-11.9129	-4.4441	-9.809	1.2956	-7.0839	-10.9329	0.2859	-0.7632	3.8822	0.2046	0.2948	0.3236	0.39	0.2271	0.3476	0.4105	0.2979	0.2465	0.3665	0.4665	0.2749	0.4698	0.4366	0.2127	0.52	0.3417	0.2769	0.2264	6.3348	1.7042	2.3131	16	220	-0.517514611916787	0	1
"221"	16	48	4	2	2.8	1	2	1	1	0.588	4.5991	-0.3546	1.8095	4.3197	11.3005	4.2223	-2.9724	-9.3104	9.2247	4.4124	4.2796	4.6223	4.6801	3.5132	-4.8249	4.9788	0.5866	10.2949	-0.1127	1.2506	0.333	0.333	0.333	0.333	0.333	0.333	0.333	0.333	0.333	0.333	0.333	0.333	0.333	0.333	0.333	0.333	0.333	0.333	0.333	6.327	1.723	2.3225	16	221	-0.53102833108351	1	0
"222"	16	22	4	-4	-5.6	0	3	-1	1	0.644	-1.5384	-0.8487	-3.8914	-12.0688	-5.6695	-12.0673	-1.8224	-5.3149	0.4615	-11.4163	-14.6953	-10.3061	-6.9866	-4.8887	-3.3118	5.6187	-8.9824	-6.9875	-5.8946	-1.4906	0.2137	0.3399	0.3063	0.2785	0.2338	0.4737	0.2725	0.4402	0.2162	0.4798	0.2884	0.242	0.4488	0.2431	0.37	0.453	0.2916	0.2366	0.5071	6.3352	1.7158	2.3782	16	222	-0.440056552877783	0	1
"223"	16	35	4	4	5.6	1	2	1	1	0.617	3.6645	10.0774	-2.2549	12.354	9.047	10.1552	7.9247	1.7529	4.2695	7.2106	-0.7042	7.7458	15.1478	9.6454	2.5416	9.2422	4.3019	0.4777	-0.0928	-1.913	0.333	0.333	0.333	0.333	0.333	0.333	0.333	0.333	0.333	0.333	0.333	0.333	0.333	0.333	0.333	0.333	0.333	0.333	0.333	6.327	1.7077	2.3345	16	223	-0.482886255076749	1	0
"224"	16	41	4	2	2.8	0	3	1	1	0.767	3.0325	4.6192	-5.697	-2.8208	5.8444	2.0711	-4.3519	2.5437	8.866	4.2854	-3.5509	-2.7445	0.0808	11.9214	4.7222	0.1615	4.3239	3.2001	7.9361	11.271	0.2947	0.2544	0.4696	0.3197	0.3638	0.244	0.5222	0.2844	0.3242	0.2081	0.341	0.4066	0.2356	0.4133	0.2441	0.3241	0.4011	0.2439	0.4322	6.3269	1.6906	2.4682	16	224	-0.265268477614881	1	0
"225"	16	14	4	4	5.6	0	2	1	1	0.674	4.2404	12.0888	4.8681	8.6528	3.7231	-5.4296	7.8943	7.9452	2.1101	7.6249	4.8011	3.7269	9.8521	1.3142	1.0844	6.6313	-2.8019	15.495	7.4492	12.0545	0.4339	0.3393	0.2084	0.3538	0.2404	0.271	0.3163	0.5111	0.4503	0.2424	0.424	0.2503	0.5233	0.2889	0.221	0.2951	0.2217	0.3009	0.4369	6.3287	1.6663	2.3579	16	225	-0.39452516806983	1	0
"226"	16	42	4	4	5.6	0	3	1	1	0.721	5.6253	8.0584	0.401	14.172	5.896	2.1276	6.7092	2.3224	-3.8321	3.7811	9.1522	8.6983	7.4582	8.1961	13.0496	3.5857	-4.4243	4.4608	6.1588	12.3896	0.2089	0.3342	0.451	0.2635	0.2969	0.4554	0.3213	0.4889	0.3476	0.2154	0.3916	0.2639	0.4131	0.2709	0.3271	0.249	0.3432	0.2416	0.4381	6.3218	1.6116	2.3382	16	226	-0.327116141697188	1	0
"227"	16	19	4	1	1.4	1	3	1	1	0.715	3.3741	8.3311	3.8339	-1.0606	-1.7563	-1.5628	1.1249	0.8655	-3.0471	-4.8406	-0.9568	1.7032	-0.7273	5.1573	-0.2106	-6.018	0.1417	2.6655	16.6228	5.1955	0.333	0.333	0.333	0.333	0.333	0.333	0.333	0.333	0.333	0.333	0.333	0.333	0.333	0.333	0.333	0.333	0.333	0.333	0.333	6.327	1.4922	2.2153	16	227	-0.335472736288129	1	0
"228"	16	38	4	-1	-1.4	0	5	-1	1	1.524	2.3722	-0.8608	-1.8193	-10.8102	-2.3534	-7.446	-3.4475	-9.3779	2.561	8.6843	3.2891	-0.1777	-6.5777	-5.8267	0.6536	2.9882	3.2954	2.7961	-2.0054	-4.5077	0.382	0.5145	0.2032	0.4015	0.2541	0.3148	0.2228	0.5313	0.2452	0.3658	0.2962	0.2268	0.2781	0.3512	0.4931	0.302	0.4528	0.2779	0.2108	6.324	1.5236	3.0585	16	228	0.421338457264455	0	1
"229"	16	25	4	0	0	0	5	1	0	1.618	2.1792	3.5186	-1.1643	-1.7057	0.367	-8.6607	5.5901	-11.1512	0.242	-0.3991	8.9292	2.8747	3.5304	-6.7141	-2.8636	7.3689	2.0725	-1.4926	-4.9443	1.1805	0.3608	0.2662	0.3158	0.4045	0.3489	0.2606	0.3994	0.2302	0.2786	0.4488	0.2768	0.3814	0.2445	0.4993	0.292	0.4318	0.3633	0.3101	0.2061	6.3191	1.4782	3.102	16	229	0.4811908186363	1	0
"230"	16	46	4	0	0	1	7	1	0	2.169	-1.8024	-7.0545	-4.1233	2.6773	0.3056	-2.0649	-7.5866	9.9741	0.9318	-2.4639	-1.4467	3.0665	-1.6749	-1.518	8.1679	-2.7289	-4.5887	-0.3934	11.4621	0.0406	0.333	0.333	0.333	0.333	0.333	0.333	0.333	0.333	0.333	0.333	0.333	0.333	0.333	0.333	0.333	0.333	0.333	0.333	0.333	6.327	1.5895	3.7702	16	230	0.774266231844737	1	0
"231"	16	12	4	1	1.4	0	3	1	1	0.824	5.4424	6.127	1.0654	-2.6502	0.4465	3.3655	-2.2474	6.3719	-2.0612	-8.1058	11.8076	-3.6339	-1.9617	-0.5122	3.0966	4.1385	3.6297	0.5387	-4.8984	9.665	0.2327	0.2824	0.3292	0.4022	0.4324	0.2058	0.4056	0.3211	0.3586	0.5012	0.3273	0.26	0.2267	0.255	0.4638	0.2999	0.228	0.4975	0.2994	6.3286	1.557	2.3917	16	231	-0.193584749072665	1	0
"232"	16	5	4	1	1.4	1	3	1	1	0.895	1.8694	11.9561	0.052	1.3355	-0.1181	1.2698	-2.7816	0.266	-4.44	0.5911	11.9302	-4.4094	1.1268	2.6482	-2.3955	3.4756	7.8035	5.2941	-3.9702	-4.9038	0.333	0.333	0.333	0.333	0.333	0.333	0.333	0.333	0.333	0.333	0.333	0.333	0.333	0.333	0.333	0.333	0.333	0.333	0.333	6.327	1.5661	2.4625	16	232	-0.110931560707282	1	0
"233"	16	68	4	1	1.4	0	4	-1	0	1.149	-0.6952	1.8693	0.4175	7.7905	6.7495	10.2403	4.0382	7.3136	-9.4371	4.1014	-1.8559	4.0413	1.8951	-0.9666	-3.3094	-1.0631	7.3201	-2.2923	-6.3135	0.0264	0.3335	0.2279	0.4682	0.4109	0.2958	0.4164	0.4672	0.2059	0.4718	0.2232	0.3761	0.2714	0.3923	0.4794	0.2591	0.3023	0.2214	0.2727	0.2251	6.3204	1.4935	2.6494	16	233	0.138891998866619	0	1
"234"	16	54	4	1	1.4	0	8	-1	0	3.063	-0.8663	3.411	8.9908	0.6237	-3.9804	6.0409	1.6785	-3.6515	-6.8598	9.4499	0.6284	-0.5761	5.5532	-1.6229	1.51	0.3486	6.1663	1.2464	-7.6922	9.2865	0.5055	0.4233	0.2251	0.4785	0.2895	0.5147	0.2478	0.4306	0.211	0.2816	0.2209	0.2802	0.37	0.2735	0.2326	0.3927	0.3127	0.2821	0.3497	6.322	1.7268	4.797	16	234	1.11939482785064	0	1
"235"	16	47	4	1	1.4	1	6	1	1	1.846	5.822	-2.3574	-0.5885	2.1365	9.1791	-8.0168	7.8715	4.9782	5.5909	-2.4616	4.7845	-3.2905	-2.333	0.9956	-7.0046	7.5367	0.6544	6.1408	-2.0298	1.1427	0.333	0.333	0.333	0.333	0.333	0.333	0.333	0.333	0.333	0.333	0.333	0.333	0.333	0.333	0.333	0.333	0.333	0.333	0.333	6.327	1.688	3.5305	16	235	0.61302113608066	1	0
"236"	16	4	4	0	0	1	8	-1	1	2.502	4.642	0.5639	0.2727	-0.9622	-3.6254	0.0814	-9.281	4.5385	-0.2428	5.1141	-2.2947	6.4317	-4.8485	-10.0674	-4.0418	9.2201	-2.0011	5.3783	-2.5372	2.2352	0.333	0.333	0.333	0.333	0.333	0.333	0.333	0.333	0.333	0.333	0.333	0.333	0.333	0.333	0.333	0.333	0.333	0.333	0.333	6.327	1.7313	4.2529	16	236	0.917090412044719	0	1
"237"	16	32	4	0	0	1	6	-1	1	1.68	0.0453	-2.4991	-3.1847	0.7695	-0.4132	2.7438	7.3566	-8.596	-0.0165	-2.4825	-6.4673	-9.1387	1.214	0.2073	0.4898	8.4293	4.0487	-2.033	-1.7077	9.7431	0.333	0.333	0.333	0.333	0.333	0.333	0.333	0.333	0.333	0.333	0.333	0.333	0.333	0.333	0.333	0.333	0.333	0.333	0.333	6.327	1.7184	3.4143	16	237	0.518793793415168	0	1
"238"	16	9	4	-2	-2.8	0	6	-1	1	1.913	-0.8724	1.5747	5.2275	1.9109	-3.1851	-2.8713	-7.9913	-2.2976	-1.2839	-3.0658	-8.7889	-4.8581	-0.8087	-5.5731	6.9113	-1.4131	-12.2123	-11.0503	1.6876	-6.8899	0.3271	0.2571	0.2092	0.4719	0.3564	0.5221	0.2194	0.4112	0.346	0.2833	0.2502	0.3999	0.2087	0.2621	0.2958	0.2302	0.4047	0.5069	0.3572	6.3192	1.4055	3.3304	16	238	0.648672690458116	0	1
"239"	16	57	4	-4	-5.6	1	4	-1	1	1.257	-0.6135	-10.3741	-4.2271	-4.3035	-6.9299	-12.8311	-7.2372	-9.2848	-8.4025	2.5261	-13.4151	-5.7344	-2.3704	-6.9574	4.7012	-0.7039	-5.1053	-4.1291	-2.1425	-13.7955	0.333	0.333	0.333	0.333	0.333	0.333	0.333	0.333	0.333	0.333	0.333	0.333	0.333	0.333	0.333	0.333	0.333	0.333	0.333	6.327	1.6424	2.9079	16	239	0.22872792960811	0	1
"240"	16	21	4	4	5.6	1	5	1	1	1.54	2.1827	-2.7426	1.4964	4.4781	5.5766	0.0933	6.5768	11.9386	3.4561	0.4369	2.1741	8.8721	13.2044	8.9977	4.7605	8.1156	12.1491	4.0858	0.0587	15.4952	0.333	0.333	0.333	0.333	0.333	0.333	0.333	0.333	0.333	0.333	0.333	0.333	0.333	0.333	0.333	0.333	0.333	0.333	0.333	6.327	1.5552	3.1074	16	240	0.431782416425538	1	0
"241"	16	45	4	-1	-1.4	1	5	-1	1	1.45	-0.6769	-2.259	-2.815	-9.4999	-13.5662	-5.8998	-2.5617	8.9077	5.4322	-0.1566	0.3683	1.7769	-2.8193	2.5383	-3.4811	-4.7748	2.4049	3.8736	-3.7391	-0.9731	0.333	0.333	0.333	0.333	0.333	0.333	0.333	0.333	0.333	0.333	0.333	0.333	0.333	0.333	0.333	0.333	0.333	0.333	0.333	6.327	1.609	3.0678	16	241	0.371563556432483	0	1
"242"	16	15	4	-4	-5.6	1	6	-1	1	1.693	-8.058	2.1796	-2.357	4.614	-11.0639	-9.0962	0.3172	-4.7039	-2.0602	-5.6695	-5.0374	-14.8412	-0.8518	-7.1041	-7.8053	-4.2241	-12.259	-10.0308	-9.1513	-3.0573	0.333	0.333	0.333	0.333	0.333	0.333	0.333	0.333	0.333	0.333	0.333	0.333	0.333	0.333	0.333	0.333	0.333	0.333	0.333	6.327	1.7133	3.4099	16	242	0.526502103150998	0	1
"243"	16	67	4	0	0	0	4	1	1	1.179	-1.3812	4.0747	5.7441	-4.1927	0.5398	-1.0145	-4.2693	-1.5263	7.4286	-2.4259	4.1891	-3.6533	-1.7674	-10.2446	3.4723	-1.3777	-8.2873	7.3829	3.1705	5.0286	0.2161	0.3707	0.3278	0.3852	0.3042	0.5103	0.3833	0.2713	0.3664	0.4464	0.3084	0.2648	0.4451	0.2683	0.5169	0.2287	0.2744	0.2078	0.2337	6.3298	1.4216	2.6135	16	243	0.164666621555234	1	0
"244"	16	51	4	-2	-2.8	0	8	-1	1	2.322	-3.4093	7.9452	-7.1927	-10.8329	-2.0356	1.8615	3.457	-5.9193	-5.9898	-11.6542	-4.0009	-1.6052	-0.3418	5.7812	-4.4802	-4.0757	-2.7453	-1.1363	-5.7823	-3.0321	0.358	0.4152	0.2851	0.234	0.3514	0.2125	0.4228	0.288	0.2335	0.2626	0.2986	0.3554	0.2777	0.413	0.363	0.2041	0.4622	0.5058	0.3877	6.3306	1.4901	3.8226	16	244	0.8424288832757	0	1
"245"	16	18	4	0	0	1	6	1	1	1.766	0.9714	3.2079	-1.606	-3.5995	6.2635	-2.1829	0.8654	-7.0921	4.947	1.06	3.0092	-4.0222	-7.9931	-5.2681	5.0753	9.0607	1.9426	2.0195	1.296	-9.1649	0.333	0.333	0.333	0.333	0.333	0.333	0.333	0.333	0.333	0.333	0.333	0.333	0.333	0.333	0.333	0.333	0.333	0.333	0.333	6.327	1.5714	3.3504	16	245	0.568717102181768	1	0
"246"	16	24	4	-1	-1.4	0	5	1	0	1.835	-4.5141	0.9117	3.8822	2.2211	-4.7666	-7.0152	-6.8767	-1.2232	1.4955	-8.1499	-1.8174	11.3959	3.4333	-7.5951	3.6671	-7.3675	-4.5426	0.9925	-0.3443	-3.0314	0.4195	0.5238	0.2335	0.455	0.3425	0.2845	0.2168	0.51	0.3442	0.314	0.2083	0.2842	0.2278	0.5131	0.3121	0.2209	0.294	0.337	0.2844	6.3256	1.6368	3.4691	16	246	0.607044481506534	1	0
"247"	16	29	4	-4	-5.6	1	3	-1	1	0.868	-6.8378	-12.3252	-5.8491	-3.2005	-10.4093	-4.73	-0.3877	-7.9203	-0.5495	-14.8386	1.8714	-4.8161	-7.4136	6.2013	-10.6927	-1.5526	-9.8909	-4.9278	-5.4825	-7.3245	0.333	0.333	0.333	0.333	0.333	0.333	0.333	0.333	0.333	0.333	0.333	0.333	0.333	0.333	0.333	0.333	0.333	0.333	0.333	6.327	1.6117	2.4856	16	247	-0.141563564321787	0	1
"248"	16	64	4	-4	-5.6	0	4	-1	1	0.948	-2.0742	-9.4945	-7.9135	-1.1892	-3.3682	0.5725	-7.6305	-16.2015	-1.7517	-2.9269	-15.1623	-8.106	-5.1611	-4.5552	-3.1633	-13.0185	2.2078	-4.6983	-2.1354	-6.3816	0.3201	0.2907	0.2038	0.4224	0.2965	0.3229	0.4918	0.4451	0.2332	0.498	0.2901	0.2573	0.2304	0.5294	0.3634	0.2385	0.3158	0.202	0.3796	6.3311	1.4478	2.3984	16	248	-0.0534007767271153	0	1
"249"	16	37	4	-2	-2.8	0	3	-1	1	0.674	-5.4269	-2.7723	-5.3448	-8.2057	3.7478	3.3507	0.0809	4.1594	-9.7944	-3.8451	-7.2484	-1.0561	-0.6626	-0.9941	-11.6828	-5.1889	7.3236	-3.399	-2.5161	-6.4856	0.2761	0.2099	0.2574	0.4698	0.3077	0.4369	0.2172	0.2849	0.5197	0.2116	0.295	0.2291	0.3214	0.4104	0.2285	0.5326	0.2095	0.4889	0.4142	6.3209	1.4718	2.1415	16	249	-0.39452516806983	0	1
"250"	16	70	4	4	5.6	0	2	1	1	0.567	8.5929	9.9534	1.1863	5.1708	5.6521	16.3603	6.0115	10.0174	5.8846	7.7059	4.2431	-3.5316	2.3009	14.6052	2.2266	-1.0205	5.9454	5.6136	7.2068	-0.3295	0.2502	0.3303	0.3665	0.2774	0.2518	0.4978	0.3893	0.3001	0.4402	0.2654	0.4386	0.3465	0.3078	0.2302	0.2018	0.4554	0.2036	0.4927	0.2839	6.3293	1.5946	2.1846	16	250	-0.567395975254385	1	0
"251"	16	58	4	-2	-2.8	1	2	-1	1	0.446	-6.1044	-0.394	-3.469	0.7625	-9.4389	-11.1198	5.7838	4.9481	-4.7472	-3.2163	-1.681	-11.4282	-7.7406	3.4573	-3.4179	-2.0701	-1.2939	-3.6894	4.9842	-4.9024	0.333	0.333	0.333	0.333	0.333	0.333	0.333	0.333	0.333	0.333	0.333	0.333	0.333	0.333	0.333	0.333	0.333	0.333	0.333	6.327	1.5447	2.0133	16	251	-0.807436326962073	0	1
"252"	16	66	4	-1	-1.4	0	3	-1	1	0.694	0.2853	-6.1848	7.5253	-0.7907	5.5322	-5.9966	0.5667	-0.8178	0.3293	-9.7267	-0.1092	-3.7011	-8.878	-3.1022	-8.2212	0.816	-3.4301	3.5553	7.6647	-2.7717	0.2869	0.3703	0.3248	0.2627	0.4837	0.2225	0.4716	0.2142	0.2641	0.4171	0.3034	0.3291	0.2942	0.3388	0.2094	0.5155	0.374	0.3374	0.3045	6.3244	1.671	2.3778	16	252	-0.365283318475333	0	1
"253"	16	40	4	1	1.4	0	3	-1	0	0.713	-1.679	-4.0251	3.9444	-7.2333	-9.0269	0.9688	9.7392	2.7663	5.4209	4.4904	6.1592	1.4801	4.9615	0.7011	3.2003	-5.2052	5.2001	4.3725	4.3598	-3.5382	0.2873	0.237	0.2051	0.3111	0.2809	0.2481	0.5181	0.201	0.4906	0.3076	0.3582	0.471	0.2797	0.4232	0.226	0.3674	0.4255	0.2294	0.4574	6.3247	1.5713	2.2968	16	253	-0.338273858567841	0	1
"254"	16	27	4	2	2.8	0	2	1	1	0.761	3.3343	1.4519	5.2013	0.6001	0.4548	-1.7209	-1.7255	8.6055	11.4625	1.0643	2.8721	8.0665	-3.7399	11.327	-2.612	6.1328	-0.7863	10.0844	-1.6908	-1.4515	0.4684	0.4057	0.2282	0.3028	0.2243	0.3382	0.293	0.4462	0.3303	0.2134	0.4735	0.2858	0.2479	0.3868	0.4119	0.2544	0.458	0.3127	0.2552	6.3367	1.4857	2.2613	16	254	-0.273121921120451	1	0
"255"	16	26	4	1	1.4	0	7	-1	0	2.251	-2.0989	5.3595	-2.3326	1.929	1.6896	0.1379	1.4548	-7.3756	15.3852	2.2437	8.1559	-0.6363	3.8036	-6.8927	-3.2987	5.8285	0.7165	2.7613	-0.5407	1.8646	0.2445	0.3031	0.5168	0.3703	0.2183	0.4951	0.2746	0.357	0.3067	0.2098	0.3839	0.265	0.3574	0.5267	0.3781	0.2634	0.3655	0.2619	0.227	6.3251	1.402	3.6683	16	255	0.811374561924595	0	1
"256"	16	53	4	0	0	0	10	1	0	2.825	-2.0241	3.0774	9.0205	-2.9748	3.1536	1.9906	-7.7259	-6.0728	0.3882	-1.0624	-5.1886	-1.9832	-3.5717	-0.0623	5.8862	-0.167	-0.4682	-4.5444	1.5304	12.1601	0.2874	0.3391	0.23	0.3056	0.2374	0.2887	0.2398	0.3654	0.4865	0.2182	0.5226	0.3236	0.4942	0.3485	0.4757	0.2092	0.2404	0.5107	0.2036	6.3268	1.4579	4.2925	16	256	1.0385083645984	1	0
"257"	16	2	4	-2	-2.8	1	4	-1	1	1.118	-4.1157	-0.8373	0.007	-4.9941	-13.1545	-1.4224	-10.4241	3.1338	0.055	1.5127	3.5782	-7.8236	-8.4572	1.0465	-3.3271	-2.0538	-9.9642	0.0161	-3.6346	4.3927	0.333	0.333	0.333	0.333	0.333	0.333	0.333	0.333	0.333	0.333	0.333	0.333	0.333	0.333	0.333	0.333	0.333	0.333	0.333	6.327	1.4815	2.6017	16	257	0.111541374732908	0	1
"258"	16	43	4	-4	-5.6	1	5	-1	1	1.655	-4.4993	2.6824	-0.9887	-6.9258	-4.0917	-15.5413	-3.9945	-0.4499	1.2808	-8.3827	-4.7696	-10.7637	-6.1538	-12.5767	-5.3324	-3.9374	-7.5898	-13.245	-8.2456	1.1504	0.333	0.333	0.333	0.333	0.333	0.333	0.333	0.333	0.333	0.333	0.333	0.333	0.333	0.333	0.333	0.333	0.333	0.333	0.333	6.327	1.4792	3.1395	16	258	0.503801008829026	0	1
"259"	16	3	4	-1	-1.4	1	7	1	0	2.287	-0.968	-6.1166	-5.8535	1.7505	-0.6012	5.3033	5.708	2.4443	0.9764	-7.0344	1.8042	-4.0034	-12.0752	-1.1745	-0.3047	0.3754	0.0867	-1.3486	-11.4144	3.498	0.333	0.333	0.333	0.333	0.333	0.333	0.333	0.333	0.333	0.333	0.333	0.333	0.333	0.333	0.333	0.333	0.333	0.333	0.333	6.327	1.6382	3.9378	16	259	0.827240915040644	1	0
"260"	16	16	4	-2	-2.8	1	10	-1	1	3.096	1.7932	-5.1245	-0.558	-13.8002	3.8693	-5.6051	2.1001	-6.5357	-2.4106	3.8116	-3.7658	-3.4829	-0.1447	2.2819	-12.6444	-0.6461	-5.0563	-8.9094	-0.2463	-2.3009	0.333	0.333	0.333	0.333	0.333	0.333	0.333	0.333	0.333	0.333	0.333	0.333	0.333	0.333	0.333	0.333	0.333	0.333	0.333	6.327	1.5649	4.6636	16	260	1.13011095572748	0	1
"261"	16	1	4	-4	-5.6	1	4	-1	1	1.17	-6.4399	-11.5548	-0.546	-10.2146	-12.3569	-8.7121	-5.9634	-11.6672	-14.0855	-3.0899	-3.6071	-7.8606	-3.7084	-1.8839	-2.653	-6.443	7.4239	-0.673	-5.7903	-2.3546	0.333	0.333	0.333	0.333	0.333	0.333	0.333	0.333	0.333	0.333	0.333	0.333	0.333	0.333	0.333	0.333	0.333	0.333	0.333	6.327	1.6195	2.7871	16	261	0.157003748809665	0	1
"262"	16	39	4	0	0	0	12	1	0	3.793	-2.8469	-3.3456	6.7515	4.6211	-1.0757	0.8498	-4.4146	-3.6085	-6.108	2.3714	7.1522	4.401	3.6771	-6.6694	-5.4951	-8.1621	8.1211	0.167	-0.3212	2.0804	0.4229	0.3389	0.2593	0.3739	0.2388	0.2972	0.4764	0.2724	0.2055	0.4384	0.4097	0.3755	0.2518	0.2038	0.2755	0.457	0.4311	0.2595	0.3461	6.3336	1.4083	5.2105	16	262	1.33315726270676	1	0
"263"	16	30	4	-2	-2.8	1	9	1	0	2.81	-7.0561	0.8082	-0.2492	-2.9829	-0.7988	1.9036	-2.7559	-2.8464	-12.0465	0.3601	-7.4748	0.2523	-8.6733	-7.7014	5.3928	-9.9427	-2.2972	-7.6081	4.0469	3.1125	0.333	0.333	0.333	0.333	0.333	0.333	0.333	0.333	0.333	0.333	0.333	0.333	0.333	0.333	0.333	0.333	0.333	0.333	0.333	6.327	1.6862	4.494	16	263	1.03318448334565	1	0
"264"	16	55	4	2	2.8	0	9	-1	0	2.506	-0.1321	-0.0239	-3.0512	1.8147	10.8901	-3.2674	-6.6789	4.6326	3.5888	7.6763	0.626	-2.6455	1.9111	3.5632	9.9242	7.1562	10.9554	5.7916	4.2427	-0.9448	0.2519	0.2264	0.3343	0.4994	0.2548	0.3596	0.2962	0.2182	0.2661	0.3187	0.437	0.3278	0.4064	0.2028	0.3844	0.4574	0.3892	0.2354	0.4596	6.3257	1.4293	3.957	16	264	0.918687856473877	0	1
"265"	16	65	4	-2	-2.8	0	19	-1	1	6.048	-5.4345	-15.0155	-2.7628	-4.2012	-7.7907	2.9922	2.6461	-8.3704	-4.4009	2.4259	-1.6001	-2.2023	2.8687	-0.3015	3.5305	-10.1831	-1.9804	-6.2325	-1.4654	2.7626	0.5076	0.4341	0.3018	0.2565	0.3968	0.2232	0.2771	0.2214	0.4471	0.2071	0.3648	0.282	0.3825	0.3307	0.2682	0.4426	0.3837	0.2832	0.3141	6.3245	1.7274	7.782	16	265	1.79972763887723	0	1
"266"	16	59	4	-1	-1.4	1	12	-1	1	3.995	-4.0283	3.1334	-0.7527	3.1778	0.1495	0.1671	-5.9982	-9.2916	-2.389	0.2879	0.1127	-1.49	5.3144	7.2154	-9.9093	2.9125	2.6225	-5.8066	-10.0291	-4.4255	0.333	0.333	0.333	0.333	0.333	0.333	0.333	0.333	0.333	0.333	0.333	0.333	0.333	0.333	0.333	0.333	0.333	0.333	0.333	6.327	1.7246	5.7286	16	266	1.38504357921824	0	1
"267"	16	69	4	2	2.8	0	6	1	1	1.647	7.7091	-1.5586	10.7665	-0.2813	9.7493	7.8825	0.8352	-1.0507	6.1755	3.1714	5.383	-12.4343	3.3688	5.7046	0.5446	-0.1503	2.2239	1.9945	4.3349	2.9669	0.328	0.3663	0.2483	0.2753	0.2261	0.3434	0.2084	0.2408	0.4532	0.4221	0.2762	0.4226	0.301	0.4215	0.3782	0.3036	0.3544	0.3093	0.4504	6.3291	1.5539	3.2148	16	267	0.498955451195503	1	0
"268"	16	44	4	-2	-2.8	1	6	-1	1	1.993	-2.0681	-1.8676	-5.2318	-7.2368	4.0752	-10.4815	-9.7263	-5.6632	-1.4119	-4.1075	-9.0227	-1.1432	-6.4812	4.6278	5.8356	4.0104	0.7405	-8.7222	1.0868	-3.5799	0.333	0.333	0.333	0.333	0.333	0.333	0.333	0.333	0.333	0.333	0.333	0.333	0.333	0.333	0.333	0.333	0.333	0.333	0.333	6.327	1.461	3.46	16	268	0.689641041230658	0	1
"269"	16	49	4	4	5.6	1	6	1	1	1.926	9.2509	2.2412	0.7157	11.5708	4.0821	-5.9368	9.7487	7.1757	3.1843	8.3924	11.2747	15.1304	0.6557	8.9105	9.6861	3.6138	3.0428	6.0503	-0.6045	3.9174	0.333	0.333	0.333	0.333	0.333	0.333	0.333	0.333	0.333	0.333	0.333	0.333	0.333	0.333	0.333	0.333	0.333	0.333	0.333	6.327	1.5835	3.5096	16	269	0.655445313375934	1	0
"270"	16	13	4	2	2.8	0	7	1	1	2.025	1.6535	6.7119	1.3301	2.5788	6.645	-2.3457	-2.229	10.2765	7.3215	4.516	-8.6314	2.5116	0.3953	5.7577	-4.2751	1.8197	2.7611	-0.3954	11.6335	6.7012	0.404	0.2708	0.2202	0.3247	0.2578	0.2161	0.3916	0.3491	0.5149	0.2332	0.2897	0.4648	0.4226	0.3092	0.5009	0.2681	0.4105	0.2621	0.2111	6.3213	1.4667	3.4922	16	270	0.705569700558502	1	0
"271"	16	17	4	-1	-1.4	1	5	-1	1	1.663	-2.0839	-11.3975	9.4429	-4.6989	-2.259	1.2368	1.0737	4.4245	8.1159	-4.9463	-6.3294	-4.2789	0.1146	-5.5263	2.1897	2.4448	-4.9448	-2.8459	-4.8564	-0.9595	0.333	0.333	0.333	0.333	0.333	0.333	0.333	0.333	0.333	0.333	0.333	0.333	0.333	0.333	0.333	0.333	0.333	0.333	0.333	6.327	1.5027	3.1635	16	271	0.508623200210791	0	1
"272"	16	34	4	2	2.8	1	6	-1	0	1.674	-0.0347	-7.6943	3.8802	5.6988	3.373	-4.4817	1.6462	3.0401	11.1677	5.1046	-5.0349	-3.1977	4.5387	3.7539	3.2179	7.1281	11.6907	2.8505	8.2577	2.9774	0.333	0.333	0.333	0.333	0.333	0.333	0.333	0.333	0.333	0.333	0.333	0.333	0.333	0.333	0.333	0.333	0.333	0.333	0.333	6.327	1.4081	3.0916	16	272	0.515215972067284	0	1
"273"	16	63	4	4	5.6	1	3	1	1	0.763	9.526	16.2044	4.2987	5.3858	9.4935	10.2008	8.9554	1.9629	2.5494	8.2292	3.3397	-4.3836	1.2266	4.6571	10.0846	1.9482	-2.3968	1.2437	6.5581	11.376	0.333	0.333	0.333	0.333	0.333	0.333	0.333	0.333	0.333	0.333	0.333	0.333	0.333	0.333	0.333	0.333	0.333	0.333	0.333	6.327	1.6362	2.3971	16	273	-0.27049724769768	1	0
"274"	16	11	4	0	0	0	12	1	0	3.687	-0.8883	-1.9453	-0.9824	3.8902	-6.6779	2.2411	0.5657	-5.8896	-0.9671	5.3431	-2.788	-0.8502	6.2731	-8.062	11.7188	-8.6138	0.6303	0.8932	5.4149	-0.4425	0.499	0.2467	0.4332	0.4058	0.2103	0.3445	0.2663	0.3447	0.2319	0.3465	0.2358	0.3372	0.5032	0.313	0.2288	0.2774	0.3319	0.2417	0.5243	6.3222	1.4583	5.1546	16	274	1.30481311925201	1	0
"275"	16	60	4	0	0	1	7	-1	0	2.213	-0.7183	6.3906	1.3426	-0.76	-0.6899	-5.9886	-0.9454	3.6768	-6.5614	-8.8722	7.3838	-3.0554	-0.6424	11.0556	3.1086	2.1533	-0.2068	3.3406	-7.1927	-1.5546	0.333	0.333	0.333	0.333	0.333	0.333	0.333	0.333	0.333	0.333	0.333	0.333	0.333	0.333	0.333	0.333	0.333	0.333	0.333	6.327	1.5115	3.7302	16	275	0.794349061068913	0	1
"276"	16	28	4	4	5.6	0	4	1	1	1.087	7.5787	6.7494	9.9817	6.073	12.2355	5.241	12.8622	8.6912	-3.6863	-0.2659	16.6005	8.5052	2.5264	3.1367	1.541	7.5163	5.373	-0.5531	0.6066	2.5295	0.445	0.25	0.2755	0.3035	0.2317	0.2794	0.4214	0.216	0.478	0.376	0.3319	0.2524	0.4933	0.3817	0.2262	0.4686	0.3024	0.2341	0.3696	6.3366	1.6451	2.7548	16	276	0.0834216081390724	1	0
"277"	16	33	4	1	1.4	1	3	1	1	0.807	4.4188	-5.099	1.3571	-5.4997	6.2026	9.4354	12.7964	3.6776	-2.8092	-0.4865	-0.5267	3.5102	-5.0865	0.5772	2.9584	3.4852	-0.5168	-5.8748	-0.3369	4.4777	0.333	0.333	0.333	0.333	0.333	0.333	0.333	0.333	0.333	0.333	0.333	0.333	0.333	0.333	0.333	0.333	0.333	0.333	0.333	6.327	1.6297	2.4573	16	277	-0.214431610712188	1	0
"278"	16	6	4	2	2.8	1	5	1	1	1.504	3.5511	-4.215	0.4058	6.7803	2.9292	12.0437	-2.3578	-0.9436	12.2027	-3.5118	4.3242	-4.2229	-2.3396	8.5096	-0.1732	1.2635	5.5083	4.2693	3.9639	8.3685	0.333	0.333	0.333	0.333	0.333	0.333	0.333	0.333	0.333	0.333	0.333	0.333	0.333	0.333	0.333	0.333	0.333	0.333	0.333	6.327	1.5327	3.0546	16	278	0.408128225527648	1	0
"279"	16	8	4	-4	-5.6	0	4	-1	1	1.004	-8.0145	-4.4995	-2.8519	-8.9764	0.653	-1.5709	1.3573	0.622	-8.6568	-3.9576	-8.1906	-10.9828	0.2393	-8.6749	-13.5124	-9.2617	-12.9729	-10.3586	0.205	-1.6569	0.348	0.2201	0.4032	0.2394	0.4196	0.217	0.3444	0.2963	0.3586	0.3943	0.3286	0.2637	0.3717	0.2065	0.5053	0.3987	0.3087	0.257	0.4371	6.3181	1.4272	2.4377	16	279	0.00399202126953746	0	1
