"subNo"	"index"	"block"	"level"	"mean"	"periodicity"	"nEvents"	"answer"	"isCorrect"	"rt"	"s1"	"s2"	"s3"	"s4"	"s5"	"s6"	"s7"	"s8"	"s9"	"s10"	"s11"	"s12"	"s13"	"s14"	"s15"	"s16"	"s17"	"s18"	"s19"	"s20"	"t1"	"t2"	"t3"	"t4"	"t5"	"t6"	"t7"	"t8"	"t9"	"t10"	"t11"	"t12"	"t13"	"t14"	"t15"	"t16"	"t17"	"t18"	"t19"	"seqDuration"	"startInterval"	"trialDuration"	"pID"	"Trial"	"rtLog"	"right"	"left"
"1"	7	19	1	1	2.86	1	4	1	1	1.176	5.2444	8.2643	-0.6439	-0.2446	1.6005	7.8883	1.8178	-6.9072	6.9906	2.3617	4.3648	4.265	-0.0533	16.517	-1.2727	0.4243	-1.4165	8.1367	-2.0451	3.2043	0.333	0.333	0.333	0.333	0.333	0.333	0.333	0.333	0.333	0.333	0.333	0.333	0.333	0.333	0.333	0.333	0.333	0.333	0.333	6.327	1.5366	2.7264	7	1	0.162118849476435	1	0
"2"	7	5	1	1	2.86	1	5	1	1	1.484	6.3007	4.3849	2.4177	8.4629	6.2914	0.3486	-9.0452	-5.4302	-0.4548	0.0643	-2.5102	-2.7794	10.739	7.7233	2.1394	6.2804	5.1725	2.8293	4.7874	8.4313	0.333	0.333	0.333	0.333	0.333	0.333	0.333	0.333	0.333	0.333	0.333	0.333	0.333	0.333	0.333	0.333	0.333	0.333	0.333	6.327	1.4063	2.901	7	2	0.394741144745189	1	0
"3"	7	36	1	-4	-11.44	0	2	-1	1	0.687	-7.9008	-18.0136	-5.1216	-21.4092	-12.4782	-17.8185	-16.0498	-6.2542	-5.8523	-12.365	-16.8291	-7.0899	-8.0336	-11.1695	-13.5324	-11.8013	-4.3559	-12.822	-5.0878	-15.1567	0.3508	0.4295	0.2821	0.2367	0.2105	0.5048	0.3511	0.2681	0.2235	0.4659	0.4336	0.2235	0.2509	0.4214	0.3529	0.2775	0.2187	0.3635	0.4538	6.3189	1.5971	2.288	7	3	-0.375420986759788	0	1
"4"	7	11	1	0	0	0	5	1	0	1.351	1.5132	-1.5638	9.4225	2.2832	-9.901	6.9473	-1.5673	0.106	4.6319	-3.136	-1.7067	-1.8056	2.4974	4.2419	7.1202	-3.5077	-0.9714	-4.3886	-8.5998	-1.1122	0.2477	0.3629	0.2122	0.3653	0.2148	0.3967	0.3715	0.4708	0.4087	0.2075	0.2742	0.3812	0.2427	0.5202	0.2599	0.4636	0.2454	0.407	0.2746	6.3268	1.4138	2.7685	7	4	0.300845058978062	1	0
"5"	7	54	1	1	2.86	0	9	1	1	2.51	1.9962	-5.2719	3.3168	1.7209	-0.0874	-3.7104	6.4035	-0.1814	7.0036	8.9787	6.6501	5.9287	7.047	-6.9324	-5.1673	4.6364	8.4151	9.2625	2.3527	6.4222	0.2052	0.2631	0.4867	0.3026	0.2192	0.3435	0.3029	0.2501	0.3495	0.4577	0.3697	0.3138	0.3753	0.2304	0.4537	0.323	0.3995	0.3707	0.301	6.3175	1.6525	4.178	7	5	0.920282753143692	1	0
"6"	7	56	1	4	11.44	0	4	1	1	0.823	8.1779	15.6917	4.5243	8.9003	5.2001	10.6995	17.0321	8.2792	6.078	8.48	7.6339	16.8635	10.3067	14.7389	16.2399	15.5709	17.7222	7.3051	22.1028	8.1108	0.2233	0.3047	0.2318	0.4849	0.3427	0.2006	0.3663	0.4342	0.2638	0.2125	0.3141	0.2669	0.5171	0.3828	0.3064	0.3773	0.3139	0.4204	0.3638	6.3275	1.4742	2.3075	7	6	-0.194799078305067	1	0
"7"	7	60	1	0	0	1	5	-1	1	1.555	1.7298	-1.1946	0.3269	-3.2361	7.8133	13.1586	-1.1002	-3.2147	-3.4916	0.3103	-4.0443	4.4435	0.968	7.0835	-1.947	-3.2254	-6.7569	-4.9221	1.2305	-5.7705	0.333	0.333	0.333	0.333	0.333	0.333	0.333	0.333	0.333	0.333	0.333	0.333	0.333	0.333	0.333	0.333	0.333	0.333	0.333	6.327	1.4338	2.9888	7	7	0.441475545631197	0	1
"8"	7	66	1	-1	-2.86	0	3	-1	1	0.676	-4.9861	-9.0379	-7.5229	1.4997	-6.9516	-5.0739	-1.2799	2.594	-6.354	-4.8711	-5.4127	3.1104	-1.6479	1.8574	-3.8344	-10.528	-7.3531	-2.3305	9.4222	2.2397	0.2001	0.2326	0.2937	0.268	0.4291	0.3026	0.2387	0.5258	0.4592	0.3291	0.255	0.4393	0.3745	0.2501	0.4372	0.3088	0.351	0.2953	0.3371	6.327	1.5026	2.1764	7	8	-0.391562202939173	0	1
"9"	7	22	1	-4	-11.44	0	2	-1	1	0.627	-16.0813	-3.5317	-1.0698	-18.5602	-12.159	-8.4369	-14.6733	-19.1551	-13.6931	-6.1732	-6.4584	-13.8384	-11.2356	-7.0232	-20.0974	-9.2873	-11.0669	-14.2639	-11.7833	-11.8279	0.4867	0.3853	0.4697	0.2103	0.4924	0.2112	0.295	0.3982	0.5167	0.2737	0.3199	0.2494	0.3158	0.2268	0.4035	0.2093	0.2489	0.3853	0.2312	6.3292	1.5924	2.2276	7	9	-0.466808738349216	0	1
"10"	7	17	1	-1	-2.86	1	5	1	0	1.565	0.4305	-0.3281	5.3481	-9.1512	-2.1452	1.6892	-10.0901	-7.0486	-8.9058	-3.5801	-2.9785	6.9411	-0.2026	-7.5922	-7.3709	2.9679	2.3792	-6.092	-4.3079	-6.3289	0.333	0.333	0.333	0.333	0.333	0.333	0.333	0.333	0.333	0.333	0.333	0.333	0.333	0.333	0.333	0.333	0.333	0.333	0.333	6.327	1.5485	3.1156	7	10	0.447885823992117	1	0
"11"	7	64	1	-4	-11.44	0	2	-1	1	0.622	-10.2538	-14.8447	-8.2305	-9.7641	-14.8515	-10.9668	-10.2522	-8.0703	-11.9791	-8.5671	-22.0881	-5.68	-18.0301	-10.1752	-10.5709	-12.2005	-1.3981	-21.3221	-7.0963	-13.8237	0.2748	0.3661	0.3001	0.2326	0.2675	0.5005	0.2537	0.5219	0.3378	0.2044	0.2358	0.2761	0.35	0.262	0.4948	0.2791	0.437	0.2256	0.4979	6.3177	1.7011	2.3231	7	11	-0.474815186242958	0	1
"12"	7	33	1	1	2.86	1	5	1	1	1.354	-0.3674	4.5474	-4.4461	3.0204	-7.0108	12.6442	-1.681	-1.8606	4.3601	0.6677	3.2775	-0.946	6.3098	7.0216	-0.044	4.8591	8.9139	7.6011	9.6475	-0.9466	0.333	0.333	0.333	0.333	0.333	0.333	0.333	0.333	0.333	0.333	0.333	0.333	0.333	0.333	0.333	0.333	0.333	0.333	0.333	6.327	1.6045	2.9548	7	12	0.303063174490083	1	0
"13"	7	35	1	4	11.44	1	2	1	1	0.616	11.1397	5.7334	4.8997	17.1011	4.7934	10.5634	14.4118	9.4243	5.6233	15.4387	16.8025	8.6899	17.5935	11.7357	16.1515	17.5113	14.2766	11.0828	14.9345	1.4349	0.333	0.333	0.333	0.333	0.333	0.333	0.333	0.333	0.333	0.333	0.333	0.333	0.333	0.333	0.333	0.333	0.333	0.333	0.333	6.327	1.5439	2.1663	7	13	-0.484508315448617	1	0
"14"	7	25	1	0	0	0	3	-1	0	0.742	-2.343	-5.7221	2.4365	-0.3565	4.2117	10.8817	-3.5981	-1.3995	-7.211	0.1777	-4.9927	2.3447	-2.4445	-8.7346	-1.9491	3.6225	3.9871	9.9281	0.4015	-1.1285	0.261	0.4411	0.354	0.2603	0.4151	0.2536	0.3032	0.2272	0.3332	0.2181	0.245	0.523	0.2123	0.4295	0.2738	0.5152	0.4697	0.2708	0.3262	6.3324	1.4572	2.2097	7	14	-0.298406035814757	0	1
"15"	7	21	1	4	11.44	1	3	1	1	0.935	6.5146	6.6278	18.3804	7.9911	14.9	7.3651	7.1993	16.1103	12.0925	14.2394	19.4409	11.5336	15.3869	18.9648	8.1459	9.8513	7.2732	5.2025	16.4578	4.0186	0.333	0.333	0.333	0.333	0.333	0.333	0.333	0.333	0.333	0.333	0.333	0.333	0.333	0.333	0.333	0.333	0.333	0.333	0.333	6.327	1.6179	2.5687	7	15	-0.06720874969345	1	0
"16"	7	57	1	-4	-11.44	1	3	-1	1	0.865	-8.3874	-11.8469	-8.8865	-10.2184	-7.2339	-9.1588	-12.6438	-9.1229	-11.3797	-19.0222	-16.1619	-9.1693	-17.9212	-6.304	-7.7389	-18.1647	-14.1443	-21.6077	-3.5888	-5.6908	0.333	0.333	0.333	0.333	0.333	0.333	0.333	0.333	0.333	0.333	0.333	0.333	0.333	0.333	0.333	0.333	0.333	0.333	0.333	6.327	1.4544	2.3323	7	16	-0.145025772050258	0	1
"17"	7	39	1	0	0	0	4	1	0	1.189	-2.5375	8.8151	6.7775	-9.7329	4.6435	1.751	-2.8942	3.8646	0.9282	-5.6833	-2.3033	4.6944	-2.4807	0.2437	-3.9251	-2.5218	-0.8597	3.3717	5.4438	-8.1687	0.4005	0.3101	0.2223	0.363	0.2207	0.3582	0.4306	0.4026	0.5206	0.3847	0.2939	0.5119	0.2119	0.2934	0.2073	0.4128	0.2669	0.3015	0.22	6.333	1.6222	2.8227	7	17	0.173112617708645	1	0
"18"	7	26	1	1	2.86	0	5	1	1	1.684	-1.8847	6.2641	6.2866	5.448	-6.0591	5.8932	10.3484	-3.2607	7.9628	-1.2902	9.1108	6.0155	-0.0186	3.149	2.0378	-4.0913	-3.7178	2.0648	3.8819	8.5608	0.4336	0.2497	0.4235	0.2619	0.3295	0.2683	0.3217	0.5113	0.2441	0.3105	0.5032	0.3283	0.3961	0.2875	0.2218	0.3432	0.3738	0.3004	0.2154	6.324	1.7085	3.4011	7	18	0.521171915820135	1	0
"19"	7	55	1	2	5.72	0	3	1	1	0.64	3.5367	10.6207	12.2465	2.2	11.522	4.6856	2.0765	7.1248	9.9206	12.1109	2.6287	0.2737	5.0522	13.9064	5.3292	5.2364	-5.892	2.2996	8.4532	1.2883	0.2916	0.2508	0.3116	0.4538	0.5238	0.2193	0.4266	0.2932	0.2257	0.455	0.232	0.3192	0.2636	0.5157	0.2258	0.2962	0.4682	0.3075	0.2487	6.3281	1.4726	2.1238	7	19	-0.446287102628419	1	0
"20"	7	13	1	2	5.72	0	3	1	1	0.657	7.6775	12.732	14.2393	9.4251	2.7484	6.1136	11.8385	-0.6919	1.4986	5.006	1.1288	6.2066	3.5037	9.5281	13.2068	4.7098	-1.4484	7.7245	-0.5821	1.0958	0.2217	0.3209	0.2756	0.3819	0.2448	0.3173	0.2139	0.2944	0.3408	0.2545	0.3308	0.383	0.4187	0.5095	0.3073	0.208	0.385	0.4969	0.4182	6.3231	1.6058	2.2748	7	20	-0.420071260497527	1	0
"21"	7	34	1	2	5.72	1	3	1	1	0.855	6.0025	11.2578	16.206	3.267	7.8676	8.7444	2.1166	8.9575	8.9571	3.6712	-0.0942	13.6751	-1.8312	1.7359	-2.2907	4.285	6.686	2.0518	4.1779	7.9649	0.333	0.333	0.333	0.333	0.333	0.333	0.333	0.333	0.333	0.333	0.333	0.333	0.333	0.333	0.333	0.333	0.333	0.333	0.333	6.327	1.434	2.3052	7	21	-0.156653810045377	1	0
"22"	7	58	1	-2	-5.72	1	2	-1	1	0.657	-3.4069	-5.5104	-11.4357	-10.5993	-0.3405	-8.4657	-14.4443	-11.5972	-2.3175	4.5599	-0.8884	-2.0492	-5.0897	-4.3635	-5.9469	-0.0614	-12.4584	-6.4921	-2.7711	-9.4908	0.333	0.333	0.333	0.333	0.333	0.333	0.333	0.333	0.333	0.333	0.333	0.333	0.333	0.333	0.333	0.333	0.333	0.333	0.333	6.327	1.6799	2.3416	7	22	-0.420071260497527	0	1
"23"	7	16	1	-2	-5.72	1	2	-1	1	0.537	-8.3892	-1.025	-8.4837	2.8501	1.9473	-8.2431	-7.3504	-11.5263	-5.7145	-8.2862	-8.7101	-11.5011	1.947	-8.3622	-7.6128	-2.1227	-4.0733	-8.9663	2.2271	-13.6001	0.333	0.333	0.333	0.333	0.333	0.333	0.333	0.333	0.333	0.333	0.333	0.333	0.333	0.333	0.333	0.333	0.333	0.333	0.333	6.327	1.4252	1.9712	7	23	-0.621757184473272	0	1
"24"	7	31	1	-1	-2.86	1	2	-1	1	0.442	-4.5362	0.9139	-5.602	2.8203	-2.0929	-1.1347	-6.579	-1.1684	2.085	-6.5087	-4.8444	-8.1307	1.5206	-3.7246	0.4142	-1.1901	-15.3894	-10.292	2.4617	4.5572	0.333	0.333	0.333	0.333	0.333	0.333	0.333	0.333	0.333	0.333	0.333	0.333	0.333	0.333	0.333	0.333	0.333	0.333	0.333	6.327	1.571	2.0261	7	24	-0.816445396904439	0	1
"25"	7	47	1	1	2.86	1	3	-1	0	0.749	1.0549	-2.3428	3.0218	0.1113	5.6484	9.9214	-1.7931	-2.8381	8.1852	0.5476	5.3239	6.1269	-0.3445	8.1803	8.0104	2.9467	-0.0398	8.8934	-9.5125	5.6033	0.333	0.333	0.333	0.333	0.333	0.333	0.333	0.333	0.333	0.333	0.333	0.333	0.333	0.333	0.333	0.333	0.333	0.333	0.333	6.327	1.5097	2.2664	7	25	-0.289016295464918	0	1
"26"	7	65	1	-2	-5.72	0	3	-1	1	0.524	-8.8474	-1.6592	-1.7879	2.9233	-3.9255	0.965	-16.1367	-9.6219	-5.7917	-9.0409	-10.4046	-6.1736	-3.514	-6.1657	-10.0497	-1.2603	-9.5674	-11.7508	2.9607	-4.1398	0.2631	0.2307	0.4613	0.2479	0.3215	0.4718	0.3448	0.2683	0.2024	0.4559	0.2113	0.3534	0.4468	0.2345	0.4434	0.2585	0.3377	0.3757	0.4038	6.3327	1.408	1.9412	7	26	-0.646263594661095	0	1
"27"	7	24	1	-1	-2.86	0	2	-1	1	0.386	-3.7969	-4.1963	-4.3897	-5.7432	-5.409	1.4192	-7.563	-10.7426	0.091	-17.9302	3.3823	0.3463	0.1663	-3.2314	0.7669	-2.9181	3.3523	-0.6184	0.8282	-2.0127	0.2363	0.2909	0.4622	0.2338	0.5184	0.228	0.2794	0.2383	0.302	0.271	0.4092	0.3072	0.5073	0.3294	0.4461	0.3253	0.4129	0.2839	0.2456	6.3271	1.4695	1.8533	7	27	-0.951917909517306	0	1
"28"	7	40	1	1	2.86	0	3	1	1	0.955	-0.7799	6.2741	2.2362	4.6085	4.316	0.5329	-4.397	-3.9013	3.9433	-5.9866	4.2762	4.0009	10.3499	8.6709	9.6191	5.7656	-3.3757	-1.8779	6.8141	7.886	0.3657	0.4295	0.3747	0.4097	0.2058	0.387	0.2156	0.4169	0.3875	0.278	0.2411	0.4729	0.2781	0.3131	0.4506	0.213	0.2895	0.3404	0.2622	6.3313	1.6358	2.5892	7	28	-0.0460439385014068	1	0
"29"	7	41	1	2	5.72	0	2	1	1	0.45	7.373	3.3394	3.2711	3.0712	-3.2382	2.7902	8.5189	14.9406	4.8397	4.5274	1.8662	10.992	6.144	13.2693	8.105	2.9976	7.3577	2.7056	14.5516	-2.7877	0.2158	0.2693	0.2208	0.3583	0.2892	0.4299	0.3477	0.2271	0.5149	0.4226	0.219	0.2854	0.4241	0.3294	0.2182	0.4285	0.5164	0.3598	0.2512	6.3275	1.546	2.0009	7	29	-0.798507696217772	1	0
"30"	7	28	1	4	11.44	0	3	1	1	0.671	12.5855	3.7594	10.5099	17.78	10.863	8.8797	19.2362	14.3926	6.1276	2.0765	17.1628	12.7179	16.7591	10.284	9.7448	18.4649	7.7125	13.1777	10.7485	5.4667	0.284	0.2305	0.4396	0.223	0.4292	0.2521	0.218	0.4933	0.2952	0.4037	0.2186	0.2834	0.343	0.5256	0.3068	0.2057	0.4446	0.2862	0.4537	6.3362	1.6915	2.3718	7	30	-0.398986142010455	1	0
"31"	7	4	1	0	0	1	2	-1	0	0.494	0.0083	8.0678	-8.8953	-3.1791	-0.4856	2.8775	11.5804	6.1587	0.8879	-1.9409	-1.8026	-2.4488	1.9386	-7.6364	-5.8101	0.7773	0.1092	3.5706	-1.9146	-0.1369	0.333	0.333	0.333	0.333	0.333	0.333	0.333	0.333	0.333	0.333	0.333	0.333	0.333	0.333	0.333	0.333	0.333	0.333	0.333	6.327	1.5439	2.0448	7	31	-0.705219761794215	0	1
"32"	7	14	1	4	11.44	0	3	1	1	0.893	6.648	5.7732	17.7166	8.3419	10.009	12.2568	19.4803	11.7984	4.6522	9.6565	9.4967	21.8181	10.9887	10.3605	6.4196	7.9509	15.0446	6.9562	14.3528	18.6173	0.3189	0.2234	0.4841	0.3734	0.3267	0.213	0.3885	0.5067	0.204	0.3052	0.3576	0.3972	0.2013	0.4113	0.4561	0.2297	0.3367	0.2813	0.3088	6.3239	1.693	2.6103	7	32	-0.113168698105638	1	0
"33"	7	43	1	-4	-11.44	1	2	-1	1	0.625	-10.7864	-19.1075	-5.8775	-11.1273	-6.1326	-12.4368	-11.9394	-5.7734	-19.6714	-18.9176	-8.6708	-8.6145	-4.679	-9.0801	-14.1239	-4.1581	-11.5265	-12.416	-18.593	-15.2899	0.333	0.333	0.333	0.333	0.333	0.333	0.333	0.333	0.333	0.333	0.333	0.333	0.333	0.333	0.333	0.333	0.333	0.333	0.333	6.327	1.615	2.2592	7	33	-0.470003629245736	0	1
"34"	7	42	1	4	11.44	0	5	1	1	1.463	13.8875	5.2153	18.2163	3.8132	11.2246	10.0042	9.2542	15.1796	6.08	7.9789	12.3844	18.4904	20.4449	15.232	12.4626	16.6675	4.8018	12.3461	8.8596	5.8629	0.5121	0.2438	0.4589	0.2081	0.3683	0.2362	0.3318	0.4502	0.3738	0.2162	0.452	0.2567	0.3171	0.3857	0.2573	0.2225	0.3559	0.2637	0.4169	6.3271	1.5135	2.9973	7	34	0.380489122037987	1	0
"35"	7	7	1	4	11.44	1	6	-1	0	1.77	12.799	20.3551	6.6877	6.7015	18.4419	4.0634	3.825	12.9493	13.1817	9.3398	14.0957	20.2364	10.7313	9.5894	5.479	14.1711	13.5437	13.2846	6.9018	11.8721	0.333	0.333	0.333	0.333	0.333	0.333	0.333	0.333	0.333	0.333	0.333	0.333	0.333	0.333	0.333	0.333	0.333	0.333	0.333	6.327	1.4457	3.237	7	35	0.570979546585738	0	1
"36"	7	18	1	0	0	1	6	-1	1	1.915	-1.5926	8.9713	-5.6086	1.0319	-7.3297	6.3086	-7.7259	4.7412	2.8193	-3.5708	3.251	0.6655	3.0657	0.5073	-11.3394	-0.245	2.1906	1.4553	-3.0339	3.6262	0.333	0.333	0.333	0.333	0.333	0.333	0.333	0.333	0.333	0.333	0.333	0.333	0.333	0.333	0.333	0.333	0.333	0.333	0.333	6.327	1.4225	3.3493	7	36	0.649717622632609	0	1
"37"	7	59	1	-1	-2.86	1	3	-1	1	0.672	-6.8363	3.1517	5.0981	-0.9601	-2.3337	-2.9726	-2.3009	-3.4337	-4.3929	-5.8695	-15.6283	4.6668	1.2037	-2.0035	-2.9016	2.415	-7.029	-10.5921	-3.4722	-3.4834	0.333	0.333	0.333	0.333	0.333	0.333	0.333	0.333	0.333	0.333	0.333	0.333	0.333	0.333	0.333	0.333	0.333	0.333	0.333	6.327	1.6695	2.3562	7	37	-0.397496938458987	0	1
"38"	7	6	1	2	5.72	1	6	1	1	1.811	6.7362	15.7248	4.336	1.7261	11.8444	4.6099	9.9763	-1.5831	11.2657	5.519	4.8807	-2.7604	-4.9437	5.0848	5.2792	4.8518	11.7793	7.5837	6.6858	5.892	0.333	0.333	0.333	0.333	0.333	0.333	0.333	0.333	0.333	0.333	0.333	0.333	0.333	0.333	0.333	0.333	0.333	0.333	0.333	6.327	1.4787	3.2955	7	38	0.593879178901276	1	0
"39"	7	2	1	-2	-5.72	1	6	-1	1	1.694	-6.5458	3.3888	-2.6112	-3.3504	-1.8277	-3.9718	-2.5851	-10.4726	-7.3275	-6.4379	-3.7976	-11.3163	-7.1647	-10.9771	-12.7967	1.5642	-13.1572	-6.7795	-11.3242	1.8077	0.333	0.333	0.333	0.333	0.333	0.333	0.333	0.333	0.333	0.333	0.333	0.333	0.333	0.333	0.333	0.333	0.333	0.333	0.333	6.327	1.4502	3.1611	7	39	0.527092596229863	0	1
"40"	7	45	1	-1	-2.86	1	2	-1	1	0.541	-2.9244	-1.9007	8.2886	-1.5146	-5.01	-6.9952	3.8957	-10.5737	-4.7209	-5.9732	-1.3687	5.3946	-7.6922	-8.9009	-1.2999	1.9179	-1.717	-0.4342	-9.9357	-4.749	0.333	0.333	0.333	0.333	0.333	0.333	0.333	0.333	0.333	0.333	0.333	0.333	0.333	0.333	0.333	0.333	0.333	0.333	0.333	6.327	1.4809	2.0246	7	40	-0.614336000135655	0	1
"41"	7	53	1	0	0	0	2	1	0	0.778	3.189	2.0368	0.4065	2.9783	-6.0474	-5.4679	-1.9865	0.867	1.4796	5.9262	-9.6219	7.7274	-1.7785	-3.0689	-2.3594	4.6006	-9.8076	6.366	-0.8144	4.417	0.3031	0.4894	0.3463	0.2012	0.2971	0.3904	0.4361	0.2725	0.3008	0.2448	0.3716	0.2636	0.5295	0.2328	0.2661	0.3489	0.4487	0.3453	0.231	6.3192	1.4455	2.2283	7	41	-0.251028754803745	1	0
"42"	7	27	1	2	5.72	0	6	1	1	1.798	3.0535	3.0751	0.1106	3.0275	7.4688	11.3767	3.943	18.3093	2.2221	-3.1078	8.9021	13.7087	8.5493	8.8597	-0.0172	7.5502	3.5253	5.5272	5.3593	2.0024	0.2352	0.4753	0.2165	0.3607	0.2039	0.3396	0.2248	0.3667	0.4257	0.2052	0.411	0.2073	0.4935	0.4021	0.4883	0.3359	0.3974	0.229	0.307	6.3249	1.4174	3.215	7	42	0.586674936049429	1	0
"43"	7	15	1	-4	-11.44	1	4	-1	1	1.224	-10.5007	-4.4379	-21.8752	-11.435	-10.5281	-18.3946	-13.6276	-16.7575	-6.3591	-14.2371	-16.9374	-17.631	-12.8771	-4.5396	-6.7848	-11.1779	-9.0072	-6.8261	-9.2225	-6.8199	0.333	0.333	0.333	0.333	0.333	0.333	0.333	0.333	0.333	0.333	0.333	0.333	0.333	0.333	0.333	0.333	0.333	0.333	0.333	6.327	1.5962	2.8244	7	43	0.202124184090134	0	1
"44"	7	49	1	4	11.44	1	4	1	1	1.149	9.3511	14.6414	16.0161	19.9162	10.4341	14.5415	6.9775	9.7711	11.1901	14.4897	4.9073	3.6968	7.5967	7.1155	7.79	4.8723	10.2423	15.8978	19.7441	17.8184	0.333	0.333	0.333	0.333	0.333	0.333	0.333	0.333	0.333	0.333	0.333	0.333	0.333	0.333	0.333	0.333	0.333	0.333	0.333	6.327	1.4272	2.5832	7	44	0.138891998866619	1	0
"45"	7	62	1	2	5.72	1	4	1	1	1.095	5.2293	6.0483	6.6403	6.8635	-0.2791	10.946	4.9407	0.6708	6.0692	6.6042	8.3425	4.5691	15.2958	4.386	4.838	-6.1407	2.3425	13.4217	12.7036	1.5478	0.333	0.333	0.333	0.333	0.333	0.333	0.333	0.333	0.333	0.333	0.333	0.333	0.333	0.333	0.333	0.333	0.333	0.333	0.333	6.327	1.6888	2.7788	7	45	0.0907543632684641	1	0
"46"	7	44	1	-2	-5.72	1	4	-1	1	1.308	-3.2152	-3.0336	-9.8911	-7.5178	-5.2985	-4.2895	-10.1101	-4.0492	-18.0651	-5.7284	-3.5737	-6.4479	-6.1745	-8.5208	-11.4885	-8.4725	1.8082	-2.4067	-2.9908	5.7205	0.333	0.333	0.333	0.333	0.333	0.333	0.333	0.333	0.333	0.333	0.333	0.333	0.333	0.333	0.333	0.333	0.333	0.333	0.333	6.327	1.5046	2.8091	7	46	0.268499253035007	0	1
"47"	7	29	1	-4	-11.44	1	2	-1	1	0.589	-12.0412	-8.4942	-10.7821	-10.0526	-7.9131	-17.2431	-16.6513	-13.036	-3.8314	-21.3408	-8.3572	-12.6222	-16.8257	-4.5822	-16.7665	-13.3758	-6.0639	-14.098	-9.2912	-3.9431	0.333	0.333	0.333	0.333	0.333	0.333	0.333	0.333	0.333	0.333	0.333	0.333	0.333	0.333	0.333	0.333	0.333	0.333	0.333	6.327	1.5093	2.1059	7	47	-0.52932909533055	0	1
"48"	7	3	1	-1	-2.86	1	3	-1	1	0.826	-0.8426	-10.0361	2.0024	0.1671	-11.7937	-1.772	4.3024	-4.0964	2.4116	-7.0563	-1.2262	-6.0569	-4.0138	0.9674	-10.7894	-0.5727	-6.1264	0.6962	-9.1235	4.7905	0.333	0.333	0.333	0.333	0.333	0.333	0.333	0.333	0.333	0.333	0.333	0.333	0.333	0.333	0.333	0.333	0.333	0.333	0.333	6.327	1.5791	2.4272	7	48	-0.191160505461159	0	1
"49"	7	1	1	-4	-11.44	1	2	-1	1	0.447	-13.1031	-11.2087	-8.5636	-16.5792	-10.6499	-13.2117	-12.5242	-11.8974	-18.089	-12.2989	0.1975	-10.3582	-8.0723	-7.9262	-7.1492	-20.0699	-19.3311	-3.5192	-8.302	-14.3871	0.333	0.333	0.333	0.333	0.333	0.333	0.333	0.333	0.333	0.333	0.333	0.333	0.333	0.333	0.333	0.333	0.333	0.333	0.333	6.327	1.4992	1.9647	7	49	-0.805196684368568	0	1
"50"	7	20	1	2	5.72	1	2	1	1	0.602	2.172	9.9037	10.9505	1.6713	6.5195	-5.0391	6.8771	9.3377	6.0661	8.7735	-2.9379	4.3924	6.9218	0.3111	8.4671	11.6588	11.5601	-1.8294	8.8264	8.5232	0.333	0.333	0.333	0.333	0.333	0.333	0.333	0.333	0.333	0.333	0.333	0.333	0.333	0.333	0.333	0.333	0.333	0.333	0.333	6.327	1.5705	2.1862	7	50	-0.507497833673316	1	0
"51"	7	12	1	1	2.86	0	3	1	1	0.671	4.1853	4.7918	-2.7626	1.0712	7.6286	-1.1688	0.0193	-1.106	4.5245	-5.1502	10.3709	7.8115	-1.9799	7.9426	10.4259	-4.2129	-1.2803	2.0002	8.0208	7.6979	0.339	0.2369	0.2639	0.352	0.2602	0.3207	0.5278	0.3289	0.5184	0.2433	0.3693	0.3317	0.499	0.2498	0.2031	0.325	0.2027	0.2998	0.463	6.3345	1.5637	2.2555	7	51	-0.398986142010455	1	0
"52"	7	68	1	1	2.86	0	2	1	1	0.593	6.619	-3.3099	5.0905	3.1202	-0.5177	-2.9795	-1.3419	1.8812	7.2178	-0.1901	0.5656	2.8348	5.5946	18.332	-2.1358	5.3089	3.6514	7.7957	0.4656	-0.8137	0.4796	0.3188	0.2344	0.4977	0.3554	0.3287	0.2432	0.4936	0.3102	0.2665	0.4236	0.3093	0.3557	0.2179	0.3149	0.2571	0.3215	0.2046	0.3894	6.3221	1.7283	2.327	7	52	-0.522560879984412	1	0
"53"	7	48	1	2	5.72	1	2	1	1	0.533	4.3595	16.476	3.6788	8.8106	3.0503	8.8394	12.2948	6.716	4.7847	2.1318	-3.7522	7.654	9.8646	-3.0108	8.3732	7.8263	5.9885	-3.2273	5.0219	7.6123	0.333	0.333	0.333	0.333	0.333	0.333	0.333	0.333	0.333	0.333	0.333	0.333	0.333	0.333	0.333	0.333	0.333	0.333	0.333	6.327	1.5605	2.1008	7	53	-0.629233854816292	1	0
"54"	7	70	1	4	11.44	0	3	1	1	0.642	7.7128	15.2941	8.8806	5.1963	16.3466	19.0198	18.1636	16.9047	8.4784	16.6329	9.1195	4.2568	6.475	6.4938	9.5186	18.3969	14.1943	5.5131	11.7473	9.6027	0.2156	0.2528	0.2021	0.2335	0.4687	0.3074	0.4422	0.2817	0.3885	0.3184	0.5184	0.3644	0.2466	0.4068	0.4574	0.3628	0.4073	0.2489	0.2015	6.325	1.6319	2.2928	7	54	-0.443166975292176	1	0
"55"	7	30	1	-2	-5.72	1	4	-1	1	1.143	-7.1035	0.2819	-14.011	-13.2773	0.4339	-0.3912	-10.1731	-1.9521	-15.3615	-3.228	-3.722	-0.2391	-6.3914	-6.5894	-3.0063	-8.9027	-7.0228	-3.9793	0.2474	-11.8157	0.333	0.333	0.333	0.333	0.333	0.333	0.333	0.333	0.333	0.333	0.333	0.333	0.333	0.333	0.333	0.333	0.333	0.333	0.333	6.327	1.4675	2.6269	7	55	0.133656384812674	0	1
"56"	7	37	1	-2	-5.72	0	3	1	0	0.832	-2.6389	-2.9668	-5.5744	-5.8981	-4.0661	-12.725	6.249	-12.4222	-8.111	-8.849	-4.2783	0.0576	-3.7293	-14.3557	-0.4994	-3.6335	-8.4607	-11.895	-4.4538	-5.4149	0.2128	0.4384	0.2829	0.4851	0.2918	0.2177	0.3624	0.2728	0.2369	0.3792	0.2883	0.3743	0.2076	0.2798	0.4766	0.5257	0.4424	0.2605	0.298	6.3334	1.4326	2.2658	7	56	-0.183922838160928	1	0
"57"	7	67	1	0	0	0	3	-1	1	0.641	-0.6675	-8.6701	3.2961	-2.275	-6.8974	1.2861	6.7338	2.9581	7.8639	-8.315	1.257	-0.1544	-4.168	-4.9421	-4.0673	2.3452	0.213	3.4475	5.8583	6.7853	0.2298	0.2896	0.3408	0.4124	0.3398	0.2006	0.2965	0.2021	0.5122	0.3788	0.2446	0.3672	0.2538	0.3355	0.4613	0.2827	0.4113	0.4502	0.3127	6.322	1.4697	2.1254	7	57	-0.444725822061467	0	1
"58"	7	32	1	0	0	1	2	-1	0	0.47	-4.4767	-1.8057	4.5266	-1.9114	8.7992	5.2991	0.6939	-0.563	-2.534	4.6179	9.2036	-3.8317	-0.3317	0.3292	-6.2742	-4.1318	6.8399	-7.7878	-4.4853	-1.2478	0.333	0.333	0.333	0.333	0.333	0.333	0.333	0.333	0.333	0.333	0.333	0.333	0.333	0.333	0.333	0.333	0.333	0.333	0.333	6.327	1.5451	2.021	7	58	-0.755022584278033	0	1
"59"	7	10	1	-1	-2.86	0	3	1	0	0.622	-4.7739	-5.7297	-8.376	-5.1534	-6.0352	0.337	-4.5738	-4.5584	-4.2039	0.4209	-10.2109	2.7804	-11.0477	1.9498	-1.3018	-0.9801	-7.8812	8.7974	-0.5722	2.29	0.2008	0.3295	0.2751	0.2244	0.4583	0.2936	0.2234	0.345	0.5084	0.2548	0.433	0.2651	0.3416	0.3713	0.4933	0.2728	0.447	0.2068	0.3736	6.3179	1.4799	2.1056	7	59	-0.474815186242958	1	0
"60"	7	61	1	1	2.86	1	5	1	1	1.438	3.3057	5.4465	-4.5006	4.0187	9.6276	7.4629	-4.5635	5.9006	1.4471	10.6662	2.2864	4.8321	4.888	3.7062	2.2694	-2.117	7.4631	-4.058	-7.5088	5.8227	0.333	0.333	0.333	0.333	0.333	0.333	0.333	0.333	0.333	0.333	0.333	0.333	0.333	0.333	0.333	0.333	0.333	0.333	0.333	6.327	1.4775	2.9219	7	60	0.363253259298855	1	0
"61"	7	63	1	4	11.44	1	3	1	1	0.883	13.3136	11.0642	9.2869	5.4955	7.7589	8.9153	14.8235	11.444	6.2149	14.8237	10.8885	21.9054	23.5988	7.1149	16.6327	8.723	12.7272	5.6167	9.3477	9.9719	0.333	0.333	0.333	0.333	0.333	0.333	0.333	0.333	0.333	0.333	0.333	0.333	0.333	0.333	0.333	0.333	0.333	0.333	0.333	6.327	1.7145	2.6007	7	61	-0.124430078378177	1	0
"62"	7	52	1	-1	-2.86	0	5	1	0	1.437	-2.8179	-2.6305	-3.4247	0.0751	-4.7471	-1.1176	0.1872	-12.3555	4.7882	-6.9893	-2.6485	-11.694	-12.1602	-0.6157	3.4214	-5.0371	-0.0066	-1.7588	-3.2246	3.9313	0.3508	0.2304	0.2899	0.444	0.2161	0.3821	0.3428	0.2939	0.5043	0.4316	0.2618	0.3722	0.2879	0.2348	0.4117	0.365	0.3207	0.21	0.3868	6.3367	1.5452	2.9882	7	62	0.362557607096888	1	0
"63"	7	51	1	-2	-5.72	0	3	-1	1	0.672	-6.3604	-0.4456	-1.0535	-8.6287	-10.6404	-16.693	4.7284	-4.9449	-7.3493	2.7177	-3.1669	-11.8048	-7.8352	-10.9826	-3.9215	-5.1924	-9.1411	-3.2777	-6.2669	-6.0795	0.3987	0.2384	0.5278	0.2848	0.3714	0.2713	0.511	0.324	0.4415	0.485	0.2356	0.4125	0.2544	0.2095	0.261	0.2002	0.364	0.2198	0.3179	6.3286	1.6393	2.306	7	63	-0.397496938458987	0	1
"64"	7	50	1	-4	-11.44	0	3	-1	1	0.508	-12.1355	-3.9935	-9.3942	-6.2969	-12.5264	-14.7368	-5.416	-18.9023	-7.8589	-16.9538	-20.4894	-7.9545	-4.9142	-8.2983	-16.4829	-17.663	-9.6881	-6.1584	-15.467	-12.6913	0.2047	0.2962	0.3543	0.3184	0.2013	0.3728	0.3051	0.2439	0.2932	0.4782	0.2324	0.3053	0.4115	0.5169	0.3481	0.515	0.294	0.2288	0.4155	6.3355	1.5113	2.026	7	64	-0.677273831403655	0	1
"65"	7	69	1	2	5.72	0	5	1	1	1.272	3.251	1.228	10.2242	6.2856	1.3906	5.4358	3.8089	4.0904	10.2512	2.3999	10.5117	15.3606	5.542	10.6077	11.8548	4.5242	10.3535	-5.6789	0.7426	3.6902	0.3251	0.3746	0.2469	0.2773	0.2386	0.4434	0.305	0.2571	0.3246	0.3781	0.3274	0.5001	0.2094	0.3723	0.301	0.4172	0.3781	0.247	0.4076	6.3306	1.4182	2.6889	7	65	0.24059046491793	1	0
"66"	7	23	1	-2	-5.72	0	4	-1	1	0.777	-2.7428	-4.0054	-5.2934	-7.5189	4.2747	-1.2655	-5.3171	2.5347	-10.2384	-15.2268	-4.1231	-6.5864	0.4337	-12.2596	-9.9677	-6.5731	-7.1246	-2.2856	-7.8509	-12.9083	0.2389	0.332	0.2059	0.4037	0.4337	0.518	0.2178	0.3253	0.2021	0.455	0.392	0.431	0.304	0.2598	0.3025	0.4788	0.2723	0.2017	0.3505	6.3251	1.5428	2.3282	7	66	-0.25231492861449	0	1
"67"	7	8	1	-4	-11.44	0	2	-1	1	0.583	-13.9162	-13.558	-16.042	-6.4698	-16.1348	-19.0462	-15.4318	-15.9876	-13.3925	-6.1233	-2.9793	-4.6695	-8.4382	-19.0685	-11.2029	-5.7429	-12.6279	-4.9494	-15.227	-8.5755	0.286	0.5124	0.3064	0.2264	0.4966	0.3043	0.244	0.2881	0.4082	0.3368	0.3869	0.3067	0.2162	0.2427	0.2776	0.2407	0.4398	0.4943	0.3111	6.3253	1.4918	2.084	7	67	-0.539568092631645	0	1
"68"	7	9	1	-2	-5.72	0	2	-1	1	0.536	-1.6632	-1.7202	-11.4973	0.3097	-16.1569	-8.5681	1.853	-4.1494	-2.8869	-6.1036	-6.0833	-8.6151	-3.99	-13.1403	-3.9348	-0.784	-6.2124	-12.7488	0.6819	-7.4532	0.2388	0.4553	0.2494	0.3062	0.3458	0.2786	0.4985	0.2483	0.3187	0.4279	0.2265	0.4355	0.273	0.2433	0.3029	0.5077	0.278	0.4639	0.2379	6.3363	1.5922	2.1366	7	68	-0.623621117911335	0	1
"69"	7	46	1	0	0	1	5	1	1	1.361	-2.3092	-3.7654	-1.4773	0.8656	-0.4493	5.2391	-2.2509	11.0158	0.2983	2.1406	2.7502	5.2115	2.29	4.9714	-8.4774	3.9583	-7.827	-1.9455	-9.2431	-1.3277	0.333	0.333	0.333	0.333	0.333	0.333	0.333	0.333	0.333	0.333	0.333	0.333	0.333	0.333	0.333	0.333	0.333	0.333	0.333	6.327	1.6904	3.0618	7	69	0.308219723669329	1	0
"70"	7	38	1	-1	-2.86	0	3	-1	1	0.935	0.7968	-6.3155	-1.1383	-4.6616	2.0278	2.2587	-1.0157	-2.6549	-4.4476	-4.2727	1.3044	-14.3157	1.2958	-6.5088	-1.2244	3.1057	-2.5008	-14.1202	-7.4502	2.0112	0.458	0.2267	0.3	0.3367	0.4097	0.295	0.2081	0.4009	0.262	0.408	0.2789	0.4652	0.3148	0.5195	0.2724	0.4013	0.2007	0.3614	0.2071	6.3264	1.4172	2.3694	7	70	-0.06720874969345	0	1
"71"	7	13	2	2	5.72	0	3	1	1	0.873	9.9856	6.0022	7.2366	-1.4241	7.9392	-2.1156	4.9196	7.0422	-6.6595	5.9757	9.5199	4.585	7.8132	14.8597	13.0081	5.2088	5.1537	2.8909	6.6991	4.5897	0.4687	0.3601	0.2145	0.2533	0.3634	0.4416	0.3151	0.3557	0.2171	0.4912	0.2155	0.3617	0.248	0.3445	0.4221	0.3371	0.2147	0.4865	0.211	6.3217	1.568	2.4402	7	71	-0.135819723142535	1	0
"72"	7	40	2	1	2.86	0	4	1	1	1.166	2.0928	-4.0207	9.2707	1.591	-0.2222	12.836	6.8413	-0.693	4.6153	3.1231	-1.998	-3.6496	-2.6869	-3.2619	1.8128	5.5109	0.8719	10.9277	5.8047	8.4791	0.349	0.4127	0.223	0.363	0.2915	0.2053	0.3312	0.261	0.4494	0.4025	0.447	0.5048	0.2475	0.3091	0.2803	0.4892	0.2039	0.3163	0.2491	6.3355	1.5236	2.7004	7	72	0.153579087928301	1	0
"73"	7	63	2	4	11.44	1	3	1	1	0.835	15.0976	14.9171	14.6255	9.111	13.5765	18.1507	6.9716	6.8021	1.0914	13.9033	5.9623	10.2833	11.1093	8.0378	6.407	18.6411	9.0399	16.5075	7.1066	19.4873	0.333	0.333	0.333	0.333	0.333	0.333	0.333	0.333	0.333	0.333	0.333	0.333	0.333	0.333	0.333	0.333	0.333	0.333	0.333	6.327	1.47	2.3025	7	73	-0.180323554131282	1	0
"74"	7	26	2	1	2.86	0	4	1	1	0.992	2.4709	0.9689	-6.3319	2.4624	7.7368	-0.3192	-2.5413	2.0984	0.5785	0.7103	14.2854	5.5909	1.0481	5.7258	14.4899	1.4184	-0.2474	-1.5037	3.7186	2.8813	0.5039	0.2	0.276	0.2032	0.4233	0.3355	0.3789	0.5239	0.3727	0.4652	0.2457	0.3061	0.2287	0.3483	0.4946	0.3063	0.2812	0.2039	0.2381	6.3354	1.5788	2.5757	7	74	-0.00803217169726427	1	0
"75"	7	30	2	-2	-5.72	1	3	1	0	0.773	-3.4211	-6.265	-14.4059	-14.37	-10.3877	-6.5368	-1.8597	-7.584	-5.7749	2.4397	-7.8956	-2.3423	-7.7183	1.9141	0.5308	-11.3803	-10.7796	-2.0204	-0.268	-7.2747	0.333	0.333	0.333	0.333	0.333	0.333	0.333	0.333	0.333	0.333	0.333	0.333	0.333	0.333	0.333	0.333	0.333	0.333	0.333	6.327	1.4035	2.1734	7	75	-0.257476230394715	1	0
"76"	7	48	2	2	5.72	1	2	1	1	0.608	7.5819	17.8106	4.8069	9.3759	3.9046	4.6147	6.3313	-3.1016	10.6598	0.2228	9.8958	5.5214	9.018	-1.8847	8.1063	1.2134	10.1683	3.2965	4.5784	1.492	0.333	0.333	0.333	0.333	0.333	0.333	0.333	0.333	0.333	0.333	0.333	0.333	0.333	0.333	0.333	0.333	0.333	0.333	0.333	6.327	1.4242	2.0252	7	76	-0.49758039701597	1	0
"77"	7	60	2	0	0	1	6	1	0	1.712	3.6287	2.7131	-6.0687	2.8599	9.2933	1.7233	-7.7593	2.0977	-0.3325	4.4281	2.1727	3.2403	-11.4713	2.6672	0.3433	2.837	0.3096	-6.4573	-1.9635	-3.9066	0.333	0.333	0.333	0.333	0.333	0.333	0.333	0.333	0.333	0.333	0.333	0.333	0.333	0.333	0.333	0.333	0.333	0.333	0.333	6.327	1.6446	3.379	7	77	0.53766227771955	1	0
"78"	7	39	2	0	0	0	5	-1	1	1.429	-0.3575	-4.5348	3.4469	-8.0086	-9.8176	2.2112	-3.7539	-1.6475	-6.2073	-2.1678	5.2062	1.9573	6.5175	1.1228	-4.5335	4.1565	8.9914	0.9225	4.7948	0.3821	0.2979	0.2118	0.3937	0.4692	0.2449	0.2069	0.3021	0.2626	0.3638	0.4062	0.437	0.4087	0.4405	0.3071	0.3608	0.4144	0.2	0.352	0.2538	6.3332	1.6219	3.0632	7	78	0.35697489894773	0	1
"79"	7	34	2	2	5.72	1	3	1	1	0.996	3.4551	7.2167	-1.1472	-0.9526	10.617	6.0465	9.9385	3.7676	2.6949	3.531	8.5781	14.8244	9.5041	6.9241	-4.1146	-0.2938	7.1686	1.9946	12.1917	10.4925	0.333	0.333	0.333	0.333	0.333	0.333	0.333	0.333	0.333	0.333	0.333	0.333	0.333	0.333	0.333	0.333	0.333	0.333	0.333	6.327	1.4131	2.4304	7	79	-0.00400802139753882	1	0
"80"	7	68	2	1	2.86	0	3	1	1	1.071	2.8948	6.4917	6.2103	3.4794	-1.0923	0.3991	2.506	-1.8827	-4.0759	2.7256	9.7858	12.5581	1.9142	11.6471	-3.3196	1.4188	2.6674	8.9215	-4.8687	-0.8846	0.3961	0.3232	0.4149	0.2309	0.2907	0.3587	0.3052	0.3535	0.2167	0.3133	0.453	0.3136	0.3805	0.2888	0.2194	0.2957	0.3309	0.5007	0.3314	6.3173	1.4269	2.5053	7	80	0.0685927914656117	1	0
"81"	7	4	2	0	0	1	3	1	1	0.674	4.5147	7.3724	6.4183	0.7093	1.9653	-3.513	2.429	10.008	-2.818	-5.1111	-7.509	3.7748	-0.0899	-1.536	-2.7959	4.4874	-6.3632	-4.3679	-4.9344	-1.8279	0.333	0.333	0.333	0.333	0.333	0.333	0.333	0.333	0.333	0.333	0.333	0.333	0.333	0.333	0.333	0.333	0.333	0.333	0.333	6.327	1.6285	2.3083	7	81	-0.39452516806983	1	0
"82"	7	64	2	-4	-11.44	0	3	-1	1	0.597	-14.9861	-18.9539	-18.8343	-18.2173	-8.5993	-11.6389	-12.6248	-13.047	-1.2959	-12.1878	-8.1504	-7.0683	-8.8383	-9.184	-14.5113	-19.1405	-6.2302	-7.4311	-6.7072	-11.2158	0.2857	0.2322	0.4976	0.5256	0.409	0.3062	0.2315	0.3231	0.2266	0.2717	0.4236	0.5328	0.2733	0.3373	0.2418	0.3408	0.239	0.4141	0.222	6.3339	1.5503	2.1648	7	82	-0.515838165589535	0	1
"83"	7	55	2	2	5.72	0	2	1	1	0.478	8.6048	5.1861	8.5961	3.6201	-1.6339	7.0264	7.8004	4.2499	5.1321	-4.3666	4.5181	13.0205	12.512	11.7232	8.4044	8.1731	5.351	0.1954	-4.2082	9.7636	0.2225	0.2634	0.32	0.4393	0.3916	0.514	0.2617	0.2936	0.3548	0.4272	0.2097	0.4651	0.2537	0.2923	0.2538	0.2916	0.4628	0.2853	0.3153	6.3175	1.4534	1.9452	7	83	-0.738144546490681	1	0
"84"	7	61	2	1	2.86	1	3	1	1	0.873	3.7996	-1.6279	5.7306	-3.6035	5.066	-0.915	12.8615	-0.8897	-0.2825	7.3517	5.5193	9.216	-2.6986	4.8958	1.8182	10.8161	-5.5476	2.3981	-2.4837	5.9357	0.333	0.333	0.333	0.333	0.333	0.333	0.333	0.333	0.333	0.333	0.333	0.333	0.333	0.333	0.333	0.333	0.333	0.333	0.333	6.327	1.5237	2.4072	7	84	-0.135819723142535	1	0
"85"	7	21	2	4	11.44	1	2	1	1	0.528	9.4487	13.3135	15.3605	15.8513	16.6903	12.402	7.9352	3.9521	10.6744	10.0476	9.3366	9.9984	14.5029	5.0783	8.6822	9.3996	10.1712	14.7679	26.1374	4.809	0.333	0.333	0.333	0.333	0.333	0.333	0.333	0.333	0.333	0.333	0.333	0.333	0.333	0.333	0.333	0.333	0.333	0.333	0.333	6.327	1.6752	2.2121	7	85	-0.638658995275876	1	0
"86"	7	18	2	0	0	1	4	-1	1	1.071	2.2817	2.4962	0.472	-0.9977	-13.6805	-4.5647	-6.6163	3.9567	5.0756	6.8317	2.4837	-4.4703	5.0609	-1.6318	-1.8085	5.3386	-1.4143	5.2059	-3.1108	0.7105	0.333	0.333	0.333	0.333	0.333	0.333	0.333	0.333	0.333	0.333	0.333	0.333	0.333	0.333	0.333	0.333	0.333	0.333	0.333	6.327	1.4337	2.5055	7	86	0.0685927914656117	0	1
"87"	7	3	2	-1	-2.86	1	3	-1	1	0.735	-7.1758	-12.6234	-5.8552	-2.3352	-9.7478	-2.8193	-5.6734	-8.9615	-7.9519	-0.0766	-0.8544	3.555	-0.11	-1.9201	-4.349	-4.2249	0.1745	2.5759	5.2358	5.4005	0.333	0.333	0.333	0.333	0.333	0.333	0.333	0.333	0.333	0.333	0.333	0.333	0.333	0.333	0.333	0.333	0.333	0.333	0.333	6.327	1.4869	2.236	7	87	-0.3078847797693	0	1
"88"	7	37	2	-2	-5.72	0	3	1	0	0.805	-2.3494	-2.6967	-5.3014	-2.0982	-11.1889	-15.1731	-8.5698	2.623	-10.8679	-7.1391	-1.2041	-4.4414	-11.8041	-0.0291	-12.2595	-1.6644	-9.8424	0.1581	-1.0371	-7.8669	0.2363	0.3741	0.5056	0.4039	0.2668	0.2417	0.2094	0.2648	0.3026	0.2418	0.3195	0.3724	0.4222	0.4504	0.3671	0.34	0.4074	0.249	0.3433	6.3184	1.4386	2.256	7	88	-0.216913001563574	1	0
"89"	7	45	2	-1	-2.86	1	4	1	0	1.224	-1.969	2.0471	1.4215	-2.4267	-5.5176	-2.7191	-2.7967	-6.8595	0.9401	-1.725	-13.0545	-9.4874	-2.1005	-7.1027	-6.3091	-5.0453	-5.7256	-1.4467	7.7671	6.0527	0.333	0.333	0.333	0.333	0.333	0.333	0.333	0.333	0.333	0.333	0.333	0.333	0.333	0.333	0.333	0.333	0.333	0.333	0.333	6.327	1.5729	2.8083	7	89	0.202124184090134	1	0
"90"	7	11	2	0	0	0	3	-1	0	0.719	-0.9055	-6.6906	0.6021	2.6696	-2.1134	-1.1803	8.1376	-1.5563	5.1053	1.2234	-0.752	-5.474	1.6583	-7.2513	-1.4954	-2.8491	0.6178	14.7656	0.1932	-2.958	0.3108	0.3489	0.2202	0.4175	0.3617	0.2452	0.3598	0.2209	0.2821	0.4504	0.3796	0.5033	0.3143	0.4112	0.2634	0.3873	0.2395	0.3879	0.2245	6.3284	1.5081	2.2367	7	90	-0.32989392126109	0	1
"91"	7	41	2	2	5.72	0	6	1	1	1.519	1.1248	8.8702	0.4395	4.6676	1.9107	10.7259	9.9949	-0.6438	15.291	9.1888	2.9373	3.7114	11.0038	5.2485	7.7923	6.0186	-2.5264	12.0607	8.2299	-0.2965	0.3286	0.2672	0.3706	0.3164	0.2023	0.3099	0.3946	0.331	0.5297	0.2402	0.5053	0.2433	0.4697	0.3292	0.3939	0.2678	0.32	0.2781	0.2283	6.326	1.5675	3.0864	7	91	0.418052223613636	1	0
"92"	7	23	2	-2	-5.72	0	3	-1	1	0.836	-6.1314	-7.0479	-0.9898	-2.2375	-4.9135	4.7598	-8.5788	-5.5877	-14.4729	-2.5264	-9.1416	-1.8112	-4.8186	-15.715	-9.026	-5.8983	-7.7668	-7.156	3.4218	-7.653	0.2096	0.4803	0.3427	0.2365	0.4171	0.3458	0.2384	0.2786	0.2296	0.5113	0.2346	0.4209	0.3851	0.461	0.2528	0.439	0.2153	0.3612	0.2703	6.33	1.4071	2.2369	7	92	-0.179126665897435	0	1
"93"	7	65	2	-2	-5.72	0	3	-1	1	0.621	-8.411	-2.7738	-5.7987	-10.4433	1.6755	-5.773	-5.8313	-6.8609	-8.8678	-14.8515	-8.4253	5.7592	-9.9647	-1.8048	-7.1538	-4.0911	-3.8831	-2.2898	-12.9444	-0.4855	0.3226	0.2535	0.3538	0.4962	0.4105	0.3503	0.4122	0.4614	0.3895	0.3578	0.2715	0.2051	0.2427	0.2944	0.3222	0.2646	0.38	0.3362	0.2076	6.3322	1.6541	2.2718	7	93	-0.476424197048658	0	1
"94"	7	66	2	-1	-2.86	0	5	-1	1	1.613	-4.3993	0.0979	3.9118	3.8258	-7.5849	-5.6493	0.4079	-6.5912	-13.3274	-0.0716	-5.3259	-3.1997	-0.7415	-9.6673	1.3509	3.7212	-1.4967	2.3934	-10.5151	-2.886	0.2084	0.2935	0.5073	0.2055	0.5121	0.2098	0.3249	0.3525	0.2275	0.473	0.348	0.2465	0.2164	0.4092	0.4393	0.2232	0.3775	0.466	0.2842	6.3245	1.7298	3.3637	7	94	0.478095799143072	0	1
"95"	7	51	2	-2	-5.72	0	3	-1	1	0.934	-0.9899	-4.4361	-6.4413	-9.6211	2.3393	-2.8598	-4.5197	-6.6505	-0.7088	-12.8102	-0.2305	-4.035	-10.7811	-13.2266	-12.1356	0.4824	-1.902	-7.3394	-3.853	-13.0726	0.4248	0.3919	0.3071	0.349	0.2242	0.2588	0.3856	0.2936	0.3544	0.298	0.2591	0.21	0.3582	0.425	0.4956	0.4266	0.2005	0.3466	0.3165	6.3257	1.7215	2.6685	7	95	-0.0682788407532944	0	1
"96"	7	9	2	-2	-5.72	0	2	-1	1	0.618	-1.7321	-13.6704	-2.9679	-6.4253	-16.2217	-7.7613	-10.9275	-7.8658	-7.9556	-11.7884	-0.5079	-1.8557	-5.2963	3.2822	-8.6995	-2.1374	-1.0547	-6.5036	-3.7345	0.0916	0.2403	0.4188	0.3067	0.4687	0.3042	0.2252	0.4435	0.321	0.2424	0.3677	0.4671	0.307	0.5323	0.2417	0.3033	0.2693	0.3309	0.2953	0.2335	6.3191	1.5477	2.185	7	96	-0.481266821524446	0	1
"97"	7	12	2	1	2.86	0	11	1	1	3.563	-1.6346	14.09	2.8652	3.2277	1.9423	-0.9483	-1.2606	-2.6746	3.4433	2.1193	-2.2879	5.4842	13.1669	-3.1712	7.4351	4.8685	2.1131	6.5084	-2.6358	5.9777	0.5126	0.231	0.3092	0.2514	0.2101	0.4117	0.2619	0.4723	0.3912	0.3023	0.3733	0.2753	0.5305	0.2494	0.2935	0.4445	0.2823	0.2403	0.2797	6.3223	1.454	5.0309	7	97	1.2706028866237	1	0
"98"	7	17	2	-1	-2.86	1	7	1	0	2.254	-7.5892	6.0793	1.5203	3.6543	-6.9742	-2.5522	-11.2191	-9.3337	-4.3029	-7.7159	-5.8532	5.3635	3.2182	-6.9233	-6.1807	-1.3668	-3.3662	-3.8812	1.4722	0.103	0.333	0.333	0.333	0.333	0.333	0.333	0.333	0.333	0.333	0.333	0.333	0.333	0.333	0.333	0.333	0.333	0.333	0.333	0.333	6.327	1.4461	3.7045	7	98	0.812706415617585	1	0
"99"	7	7	2	4	11.44	1	3	1	1	0.907	11.0039	9.9906	9.6381	7.7982	11.9439	6.8273	7.8846	11.0441	10.5379	16.8303	4.5312	20.3555	1.7444	6.8287	11.4442	17.0223	19.2909	17.2347	11.7139	16.764	0.333	0.333	0.333	0.333	0.333	0.333	0.333	0.333	0.333	0.333	0.333	0.333	0.333	0.333	0.333	0.333	0.333	0.333	0.333	6.327	1.4583	2.3748	7	99	-0.0976128288670004	1	0
"100"	7	29	2	-4	-11.44	1	7	-1	1	2.042	-10.7226	-10.924	-1.8308	-10.4121	-5.4038	-8.5739	-7.3648	-14.7272	-22.6137	-9.1423	-7.1812	-13.3238	-7.3519	-8.8226	-19.4522	-9.3414	-15.2339	-15.8509	-13.6125	-18.0205	0.333	0.333	0.333	0.333	0.333	0.333	0.333	0.333	0.333	0.333	0.333	0.333	0.333	0.333	0.333	0.333	0.333	0.333	0.333	6.327	1.4527	3.5094	7	100	0.713929719742474	0	1
"101"	7	52	2	-1	-2.86	0	3	-1	1	0.75	-7.8327	-0.7553	-4.8928	-0.8907	5.5807	-3.5901	-3.5191	4.6943	-9.1995	3.3528	-4.1285	-4.5568	-1.4883	2.398	-1.4103	-8.2732	-9.7211	0.6452	-13.0157	0.5071	0.5161	0.2001	0.3953	0.2979	0.4838	0.2168	0.3051	0.3967	0.2177	0.3529	0.2484	0.4904	0.3346	0.2427	0.3755	0.234	0.505	0.2791	0.2354	6.3276	1.5176	2.2845	7	101	-0.287682072451781	0	1
"102"	7	44	2	-2	-5.72	1	3	1	0	0.904	-0.9743	1.3036	-0.9328	-12.7547	-2.3669	-10.2519	-4.5427	-9.1199	-0.6216	-8.9161	-8.1398	-0.6259	-17.8419	-3.9454	-0.6329	-7.1405	-1.3298	-7.0377	-10.057	-7.8288	0.333	0.333	0.333	0.333	0.333	0.333	0.333	0.333	0.333	0.333	0.333	0.333	0.333	0.333	0.333	0.333	0.333	0.333	0.333	6.327	1.6756	2.5877	7	102	-0.100925918589961	1	0
"103"	7	70	2	4	11.44	0	3	-1	0	0.644	10.3248	11.7315	16.1359	3.5759	13.7525	9.1445	10.8679	15.7021	24.9832	10.3378	11.8879	7.4202	15.6857	8.1495	11.634	13.1902	12.2347	6.6706	1.7817	11.9835	0.2133	0.2725	0.4791	0.2447	0.4789	0.3113	0.2229	0.4195	0.4628	0.2517	0.5138	0.2628	0.38	0.4646	0.3887	0.2331	0.2878	0.2042	0.2325	6.3244	1.719	2.3618	7	103	-0.440056552877783	0	1
"104"	7	20	2	2	5.72	1	3	1	1	0.804	1.2588	10.5087	17.1238	6.8436	6.0895	5.1983	3.2027	7.928	6.2363	7.3602	7.3726	7.9654	0.9054	9.8462	8.596	10.0137	-2.638	-3.6379	5.1857	-1.8722	0.333	0.333	0.333	0.333	0.333	0.333	0.333	0.333	0.333	0.333	0.333	0.333	0.333	0.333	0.333	0.333	0.333	0.333	0.333	6.327	1.5121	2.3216	7	104	-0.218156009803171	1	0
"105"	7	8	2	-4	-11.44	0	4	-1	1	1.239	-11.8846	-8.9676	-11.2923	-8.8675	-11.7123	-7.351	-13.4155	-10.7667	-12.8561	-14.2828	-10.219	-11.5368	-0.5216	-17.5289	-18.8046	-15.8243	-6.3349	-1.5903	-17.1126	-18.1064	0.3236	0.3613	0.2142	0.4566	0.3132	0.2805	0.4091	0.4703	0.2508	0.376	0.2158	0.2985	0.2626	0.4479	0.3564	0.4251	0.2762	0.33	0.2664	6.3346	1.5728	2.8231	7	105	0.214304602647005	0	1
"106"	7	33	2	1	2.86	1	5	1	1	1.607	1.679	4.6807	4.3102	5.7245	8.7713	5.594	-5.6996	5.7714	2.8499	2.4289	2.1855	-9.7775	-3.2274	10.5163	10.2268	5.7596	0.0711	2.9647	0.0916	3.1233	0.333	0.333	0.333	0.333	0.333	0.333	0.333	0.333	0.333	0.333	0.333	0.333	0.333	0.333	0.333	0.333	0.333	0.333	0.333	6.327	1.4708	3.074	7	106	0.474369086755376	1	0
"107"	7	2	2	-2	-5.72	1	2	-1	1	0.569	-3.1256	0.7316	-4.2367	-6.0889	-11.4739	6.5154	-5.5295	-4.1362	-7.6102	1.7631	-4.8396	-1.3051	-3.1284	-8.1946	-14.8733	-11.4468	-9.7177	-9.0545	-9.4377	-7.9418	0.333	0.333	0.333	0.333	0.333	0.333	0.333	0.333	0.333	0.333	0.333	0.333	0.333	0.333	0.333	0.333	0.333	0.333	0.333	6.327	1.5766	2.1529	7	107	-0.563874844855806	0	1
"108"	7	49	2	4	11.44	1	5	1	1	1.354	12.6258	6.4506	16.7789	19.7103	12.8608	5.4342	14.4434	10.3562	7.5587	11.2765	8.5695	9.5718	15.138	3.9985	11.3128	15.7536	2.6675	20.5245	9.9953	14.9618	0.333	0.333	0.333	0.333	0.333	0.333	0.333	0.333	0.333	0.333	0.333	0.333	0.333	0.333	0.333	0.333	0.333	0.333	0.333	6.327	1.5535	2.9052	7	108	0.303063174490083	1	0
"109"	7	31	2	-1	-2.86	1	7	1	0	2.096	-7.6217	-3.914	-6.0858	5.0626	2.7878	-4.9473	-7.8154	-8.2314	-3.2491	2.5288	2.4941	-8.1636	-5.5827	-10.0529	3.1229	-8.7751	2.9364	2.5023	-2.2724	-1.0789	0.333	0.333	0.333	0.333	0.333	0.333	0.333	0.333	0.333	0.333	0.333	0.333	0.333	0.333	0.333	0.333	0.333	0.333	0.333	6.327	1.4948	3.613	7	109	0.740030766458796	1	0
"110"	7	62	2	2	5.72	1	6	1	1	1.737	7.5648	-3.4811	4.1942	6.2747	10.4539	1.5711	3.9414	0.2945	8.3313	7.1952	20.266	3.1577	4.5993	8.5956	7.3911	-1.4325	10.7011	5.5725	5.0566	4.9758	0.333	0.333	0.333	0.333	0.333	0.333	0.333	0.333	0.333	0.333	0.333	0.333	0.333	0.333	0.333	0.333	0.333	0.333	0.333	6.327	1.7064	3.4549	7	110	0.552159487258968	1	0
"111"	7	50	2	-4	-11.44	0	2	-1	1	0.599	-9.2784	-18.5458	-5.6869	-15.9362	-10.9621	-11.8921	-21.2401	-11.9693	-9.1941	-4.7479	-10.1197	-6.8699	-10.84	-6.5173	-13.5141	-19.3633	-4.7506	-9.183	-10.1003	-17.8377	0.4959	0.2434	0.4326	0.2986	0.2271	0.3391	0.3003	0.4265	0.3127	0.4347	0.3889	0.2401	0.277	0.2118	0.339	0.3984	0.2337	0.2756	0.4603	6.3357	1.5539	2.1669	7	111	-0.512493680866688	0	1
"112"	7	5	2	1	2.86	1	13	-1	0	4.202	-1.5207	1.7481	-0.9063	11.4284	-3.395	6.6037	0.8981	8.5257	-2.0013	-4.2099	5.4326	0.4577	2.9255	5.9768	-0.8745	1.5817	14.2903	6.8895	-1.7932	4.8953	0.333	0.333	0.333	0.333	0.333	0.333	0.333	0.333	0.333	0.333	0.333	0.333	0.333	0.333	0.333	0.333	0.333	0.333	0.333	6.327	1.6235	5.8356	7	112	1.43556060242281	0	1
"113"	7	54	2	1	2.86	0	6	1	1	1.836	3.487	6.9798	-0.4733	7.3562	6.3606	1.9765	8.7345	-8.1754	-0.6499	7.0511	9.5787	3.4253	2.3656	-5.6536	0.7724	7.5991	-5.5947	3.5124	6.2863	3.1878	0.3804	0.3522	0.2812	0.521	0.2209	0.4786	0.2522	0.3144	0.2617	0.3627	0.2398	0.4298	0.2051	0.5118	0.3303	0.2735	0.3792	0.291	0.2377	6.3234	1.728	3.5703	7	113	0.607589292198299	1	0
"114"	7	1	2	-4	-11.44	1	3	-1	1	0.827	-8.3133	-12.0949	-8.2476	-8.5239	-12.7442	-8.5073	-3.57	-17.1996	-7.6122	-15.9314	-1.8422	-9.1927	-16.3526	-10.634	-11.9205	-20.6084	-21.0428	-9.2493	-10.7677	-14.3592	0.333	0.333	0.333	0.333	0.333	0.333	0.333	0.333	0.333	0.333	0.333	0.333	0.333	0.333	0.333	0.333	0.333	0.333	0.333	6.327	1.4882	2.3282	7	114	-0.189950583958446	0	1
"115"	7	67	2	0	0	0	9	-1	1	2.599	0.817	-0.79	-1.1758	0.8965	6.4956	-2.4201	-6.3748	0.2676	-6.7832	1.404	0.3366	8.0328	-0.7682	6.7345	4.1305	2.1062	-0.1922	4.2753	-11.2272	-7.6723	0.3124	0.366	0.3168	0.2116	0.5048	0.3383	0.2402	0.3014	0.5189	0.3455	0.4478	0.2464	0.3577	0.2559	0.3769	0.2056	0.3574	0.2963	0.3327	6.3327	1.6971	4.3002	7	115	0.955126755659353	0	1
"116"	7	6	2	2	5.72	1	4	1	1	1.09	1.8722	3.6968	5.8028	7.8506	8.1861	-6.2283	0.6064	11.7941	9.5262	12.6163	7.0243	2.5262	13.3377	7.7663	-1.5732	1.1167	4.5043	6.9322	8.897	8.3478	0.333	0.333	0.333	0.333	0.333	0.333	0.333	0.333	0.333	0.333	0.333	0.333	0.333	0.333	0.333	0.333	0.333	0.333	0.333	6.327	1.5715	2.6738	7	116	0.0861776962410524	1	0
"117"	7	58	2	-2	-5.72	1	2	-1	1	0.575	-7.4186	5.4942	-3.4708	-6.9197	-11.9451	-5.7121	-1.2634	-1.2788	-9.6865	-8.3982	-2.4741	0.1884	-3.8176	-5.6503	-7.1606	-4.6133	-11.8983	-16.3862	-3.1004	-9.9623	0.333	0.333	0.333	0.333	0.333	0.333	0.333	0.333	0.333	0.333	0.333	0.333	0.333	0.333	0.333	0.333	0.333	0.333	0.333	6.327	1.692	2.2755	7	117	-0.553385238184787	0	1
"118"	7	46	2	0	0	1	3	-1	0	0.721	0.2567	1.5298	2.1567	-6.0068	-1.9724	2.7615	8.6246	2.3958	-4.07	-4.367	-1.7283	4.9641	5.3993	8.8658	-9.6667	0.4402	-0.1125	-7.1498	-3.5609	0.1991	0.333	0.333	0.333	0.333	0.333	0.333	0.333	0.333	0.333	0.333	0.333	0.333	0.333	0.333	0.333	0.333	0.333	0.333	0.333	6.327	1.6707	2.4056	7	118	-0.327116141697188	0	1
"119"	7	10	2	-1	-2.86	0	3	1	0	0.656	-1.959	2.8362	-12.0095	5.6155	-1.5015	-2.8987	-4.6474	-2.9023	-8.6162	-8.9542	-5.0325	3.4354	1.9359	-4.9778	-5.7506	1.7078	5.1615	-4.8604	-5.3961	-8.9383	0.2594	0.3192	0.2496	0.4	0.4657	0.4056	0.3131	0.2571	0.4075	0.3036	0.2247	0.3514	0.4402	0.2833	0.4488	0.2498	0.3077	0.2257	0.4168	6.3293	1.4303	2.09	7	119	-0.421594490038048	1	0
"120"	7	59	2	-1	-2.86	1	4	-1	1	1.102	-1.126	-6.5178	-6.3674	-7.1876	-1.0082	0.677	6.4474	2.3713	-3.7272	-5.2115	-10.123	-4.8185	-13.4326	-5.2268	-1.8518	-7.068	1.5131	1.6008	2.0013	2.1419	0.333	0.333	0.333	0.333	0.333	0.333	0.333	0.333	0.333	0.333	0.333	0.333	0.333	0.333	0.333	0.333	0.333	0.333	0.333	6.327	1.5047	2.6027	7	120	0.0971267107307228	0	1
"121"	7	47	2	1	2.86	1	9	1	1	2.807	2.0569	-5.9094	-1.8662	0.0912	3.0715	-7.1606	3.8657	-0.7084	9.7062	4.1321	2.2216	4.4949	7.5838	10.3375	11.8905	-3.3387	2.8626	2.484	7.4099	1.9795	0.333	0.333	0.333	0.333	0.333	0.333	0.333	0.333	0.333	0.333	0.333	0.333	0.333	0.333	0.333	0.333	0.333	0.333	0.333	6.327	1.4376	4.2415	7	121	1.03211629737975	1	0
"122"	7	28	2	4	11.44	0	3	1	1	0.692	13.7717	20.1379	19.3036	13.6902	13.7665	8.1566	7.2216	5.2824	17.9036	11.6819	11.2534	10.4892	15.8025	2.1623	16.2961	6.7784	10.1715	9.8265	11.551	4.7455	0.2073	0.2951	0.4547	0.3205	0.2574	0.3528	0.5269	0.3235	0.3778	0.2311	0.3039	0.3435	0.2013	0.4081	0.3797	0.3385	0.3967	0.2642	0.3416	6.3247	1.6741	2.3591	7	122	-0.368169323364468	1	0
"123"	7	25	2	0	0	0	5	1	1	1.204	2.8043	4.9054	-3.1542	9.7599	-1.3992	7.3676	5.3756	5.9978	1.6918	-1.1112	0.4429	-4.6328	-8.7253	-4.5051	2.7658	-3.6106	-0.4448	-8.3389	-2.3821	-2.7029	0.3015	0.2072	0.2722	0.2177	0.2704	0.3151	0.4753	0.5004	0.3335	0.458	0.2553	0.213	0.2812	0.502	0.2594	0.3377	0.3823	0.4823	0.2592	6.3238	1.7205	2.9217	7	123	0.185649346886629	1	0
"124"	7	16	2	-2	-5.72	1	2	-1	1	0.646	-7.7445	-11.5649	-8.9702	-13.486	-3.187	-14.6121	-5.9505	0.8026	-6.5632	-5.6089	3.6819	-10.128	-5.9001	-8.6088	1.1856	2.6665	-4.0243	-4.948	-6.6917	-4.0413	0.333	0.333	0.333	0.333	0.333	0.333	0.333	0.333	0.333	0.333	0.333	0.333	0.333	0.333	0.333	0.333	0.333	0.333	0.333	6.327	1.5828	2.247	7	124	-0.436955775199535	0	1
"125"	7	27	2	2	5.72	0	4	1	1	1.193	3.0197	9.9949	9.85	-5.1869	11.9335	5.844	-1.9231	12.7275	13.8738	6.2254	12.0162	4.1729	6.5698	1.7669	0.6331	4.3526	7.3981	2.1291	4.2227	5.2553	0.4378	0.3382	0.2455	0.3825	0.4733	0.2512	0.4183	0.2452	0.4101	0.3132	0.4554	0.2322	0.2966	0.2001	0.365	0.3393	0.2249	0.2998	0.3924	6.3212	1.5759	2.7771	7	125	0.176471143115779	1	0
"126"	7	36	2	-4	-11.44	0	2	-1	1	0.521	-7.8141	-14.4445	-13.2298	-15.3279	-12.1668	-13.4348	-9.0036	-3.1666	-8.8304	-16.6218	-10.9672	0.9003	-8.0399	-13.4327	-14.6368	-13.3279	-19.5947	-8.3389	-18.4405	-8.3025	0.2333	0.4971	0.2913	0.4145	0.4617	0.277	0.3405	0.2344	0.378	0.2027	0.4731	0.2799	0.3754	0.4234	0.3088	0.4112	0.2749	0.2494	0.2047	6.3314	1.4357	1.9716	7	126	-0.65200523722877	0	1
"127"	7	43	2	-4	-11.44	1	2	-1	1	0.562	-14.092	-3.8594	-10.3299	-14.715	-19.2464	-4.0806	-9.4579	-10.256	-5.2072	-11.627	-13.9143	-5.7183	-13.7114	-20.2575	-9.418	-16.4073	-13.7398	-14.0001	-14.3001	-4.1796	0.333	0.333	0.333	0.333	0.333	0.333	0.333	0.333	0.333	0.333	0.333	0.333	0.333	0.333	0.333	0.333	0.333	0.333	0.333	6.327	1.6559	2.2297	7	127	-0.576253429088446	0	1
"128"	7	69	2	2	5.72	0	7	1	1	1.86	3.569	2.7802	3.407	4.3082	0.086	6.8468	-4.4421	0.4266	13.194	13.9601	2.2222	7.1967	6.2027	11.0906	9.2012	-0.9159	7.4092	8.3469	7.8861	12.696	0.2267	0.2832	0.375	0.4531	0.2148	0.2447	0.4449	0.2437	0.3833	0.3251	0.414	0.2112	0.3816	0.4179	0.3814	0.2567	0.4534	0.3545	0.2701	6.3352	1.5272	3.3939	7	128	0.62057648772511	1	0
"129"	7	38	2	-1	-2.86	0	7	-1	1	1.779	1.6109	-2.6721	1.5847	-4.0073	-4.8533	-3.8069	-12.4708	-4.91	0.4363	0.7419	-4.614	2.4068	-13.1351	3.7703	-1.0115	-6.5557	3.493	-8.3705	1.6422	-7.095	0.2093	0.2551	0.4577	0.2247	0.3476	0.2374	0.3699	0.2266	0.4195	0.2084	0.4637	0.5007	0.3845	0.316	0.2386	0.2897	0.4747	0.3999	0.299	6.3231	1.4387	3.2299	7	129	0.576051408683698	0	1
"130"	7	19	2	1	2.86	1	3	1	1	0.768	3.0331	9.3164	5.7949	7.5947	2.947	0.953	-0.317	7.0027	2.0641	2.5136	7.9499	-4.529	-4.4958	-9.0871	-1.5248	5.0771	-0.4986	4.4941	9.5007	7.7153	0.333	0.333	0.333	0.333	0.333	0.333	0.333	0.333	0.333	0.333	0.333	0.333	0.333	0.333	0.333	0.333	0.333	0.333	0.333	6.327	1.4829	2.2687	7	130	-0.263965545834465	1	0
"131"	7	14	2	4	11.44	0	3	1	1	0.596	12.6715	11.7475	19.6499	13.3789	14.4925	4.8222	12.2945	6.6142	9.3705	11.6623	8.683	12.62	22.6525	11.5875	1.8784	6.7508	18.6782	10.5621	7.5374	9.3713	0.3561	0.2325	0.2947	0.3343	0.2473	0.2726	0.3692	0.4734	0.3791	0.2827	0.2235	0.3769	0.246	0.215	0.4442	0.3478	0.4274	0.2944	0.5111	6.3283	1.5238	2.1302	7	131	-0.517514611916787	1	0
"132"	7	32	2	0	0	1	3	1	0	0.671	2.8732	-2.2197	-1.5565	1.5581	-9.4398	3.4542	-0.8071	3.2267	-8.5784	1.4171	4.3813	4.5324	-5.3878	-1.8603	-2.5643	-3.1961	5.1953	-6.4964	8.1935	6.8243	0.333	0.333	0.333	0.333	0.333	0.333	0.333	0.333	0.333	0.333	0.333	0.333	0.333	0.333	0.333	0.333	0.333	0.333	0.333	6.327	1.5997	2.272	7	132	-0.398986142010455	1	0
"133"	7	35	2	4	11.44	1	2	1	1	0.647	12.9191	6.0334	19.5872	4.1274	8.5616	17.7965	19.7709	5.2382	8.4282	16.7972	12.0707	9.8377	10.7746	15.8828	14.2312	14.8614	8.4361	11.4042	4.4894	7.4278	0.333	0.333	0.333	0.333	0.333	0.333	0.333	0.333	0.333	0.333	0.333	0.333	0.333	0.333	0.333	0.333	0.333	0.333	0.333	6.327	1.6396	2.2974	7	133	-0.435408984481236	1	0
"134"	7	57	2	-4	-11.44	1	2	-1	1	0.499	-11.7894	-15.161	-4.5184	-17.2555	-16.7432	-9.3053	-16.1033	-5.363	-9.6593	-18.2706	-3.517	-8.7135	-17.9827	-10.6587	-15.4961	-13.2251	-15.8287	-5.6191	-9.7122	-5.0077	0.333	0.333	0.333	0.333	0.333	0.333	0.333	0.333	0.333	0.333	0.333	0.333	0.333	0.333	0.333	0.333	0.333	0.333	0.333	6.327	1.5694	2.0665	7	134	-0.695149183230618	0	1
"135"	7	53	2	0	0	0	4	-1	0	1.125	0.5415	-7.3398	1.9591	-11.2154	3.0934	-3.3559	-4.3514	8.1656	-0.4549	5.7099	1.4738	-2.4113	5.3099	-4.6226	7.2379	-1.3769	0.06	4.7388	-5.1053	0.3186	0.3968	0.3646	0.2155	0.4181	0.3356	0.3702	0.3413	0.2018	0.2646	0.3313	0.259	0.3749	0.2445	0.4239	0.3671	0.4449	0.347	0.2735	0.361	6.3356	1.5343	2.6592	7	135	0.117783035656383	0	1
"136"	7	15	2	-4	-11.44	1	2	-1	1	0.64	-9.4195	-4.4083	-10.1833	-5.9891	-16.8732	-13.8545	-12.0235	-4.2929	-10.1614	-1.9256	-17.5969	-16.4747	-11.6773	-8.6812	-19.072	-16.4849	-14.848	-10.2855	-16.1316	-9.3837	0.333	0.333	0.333	0.333	0.333	0.333	0.333	0.333	0.333	0.333	0.333	0.333	0.333	0.333	0.333	0.333	0.333	0.333	0.333	6.327	1.5733	2.2243	7	136	-0.446287102628419	0	1
"137"	7	24	2	-1	-2.86	0	5	1	0	1.451	2.0802	3.06	0.2556	-1.2098	-4.2101	-5.1525	-8.4908	-7.8529	-0.1701	6.4086	-10.5902	-4.3074	-2.2086	-3.6485	-2.9538	4.5944	-1.6391	0.4969	-9.417	-11.5029	0.2209	0.4449	0.3993	0.2028	0.2615	0.2022	0.3923	0.3014	0.416	0.2772	0.2418	0.3662	0.4394	0.2869	0.42	0.3026	0.2772	0.5086	0.3712	6.3324	1.6174	3.0684	7	137	0.372252973902051	1	0
"138"	7	42	2	4	11.44	0	3	1	1	0.648	13.8224	16.0204	6.3592	10.1982	9.1973	23.1067	21.839	12.7504	13.5033	8.1645	3.7337	9.0942	12.246	3.7687	6.5009	15.3431	12.718	11.5305	10.1801	10.4357	0.2765	0.2417	0.4744	0.3394	0.3672	0.2924	0.2553	0.3307	0.2152	0.3412	0.5099	0.4775	0.4002	0.4522	0.2347	0.2043	0.2459	0.4333	0.2256	6.3175	1.5347	2.1818	7	138	-0.433864582629862	1	0
"139"	7	22	2	-4	-11.44	0	3	-1	1	0.623	-13.051	-15.3434	-15.9842	-15.8516	-6.5726	-8.9189	-12.5317	-5.9475	-10.6069	-5.25	-14.3544	-9.994	-6.0012	-6.6425	-16.9988	-17.4529	-18.9394	-18.0884	-3.5533	-7.8109	0.2185	0.2995	0.4846	0.412	0.4534	0.3484	0.2338	0.3043	0.2325	0.4044	0.4935	0.351	0.2159	0.2924	0.2138	0.2393	0.448	0.4763	0.2004	6.322	1.5276	2.1567	7	139	-0.473208760194684	0	1
"140"	7	56	2	4	11.44	0	7	1	1	1.725	9.7588	16.0401	17.2758	6.0732	10.0692	12.2543	9.7132	2.3653	8.3488	16.0135	17.5363	14.6515	10.607	8.4395	12.511	3.6202	13.867	20.0069	4.457	13.8712	0.2028	0.424	0.2117	0.28	0.3136	0.2249	0.2908	0.4984	0.2151	0.4367	0.2577	0.4337	0.2342	0.2781	0.503	0.328	0.5232	0.4236	0.2388	6.318	1.5561	3.276	7	140	0.545227050483323	1	0
"141"	7	38	3	-1	-2.86	0	7	-1	1	2.487	-5.2194	3.9836	-8.8903	-7.1055	-2.0311	-5.7667	-9.7351	3.26	-2.9626	-7.199	-9.2096	6.4175	4.562	-4.5032	2.546	-2.2472	-3.8675	-3.5036	-7.4392	0.6589	0.3053	0.3652	0.2418	0.4257	0.333	0.4034	0.5205	0.3175	0.2087	0.4663	0.2216	0.3772	0.3025	0.3677	0.2622	0.4129	0.208	0.3689	0.2239	6.3326	1.4924	3.9874	7	141	0.911077164821268	0	1
"142"	7	19	3	1	2.86	1	8	1	1	2.386	2.4814	-7.2468	3.4253	11.2719	1.8093	-2.5198	-2.8595	-0.1228	8.7317	3.5591	0.4798	9.1984	-5.201	7.4593	4.6111	-0.1522	3.8362	1.6993	5.3378	10.075	0.333	0.333	0.333	0.333	0.333	0.333	0.333	0.333	0.333	0.333	0.333	0.333	0.333	0.333	0.333	0.333	0.333	0.333	0.333	6.327	1.6836	4.0703	7	142	0.869618323675724	1	0
"143"	7	54	3	1	2.86	0	10	1	1	3.202	-1.9451	3.6464	4.1949	6.0947	2.2913	-2.5639	0.9973	2.9162	6.5488	5.8744	8.544	11.5946	4.1198	7.5291	4.5444	-8.6174	-7.5362	5.9497	0.1487	1.1867	0.4544	0.3383	0.3895	0.3384	0.372	0.2895	0.2397	0.3763	0.234	0.4102	0.2372	0.4036	0.2869	0.2528	0.2189	0.2651	0.4712	0.2787	0.4646	6.3214	1.5001	4.7029	7	143	1.16377561457452	1	0
"144"	7	45	3	-1	-2.86	1	10	-1	1	3.227	-3.4297	-1.7621	6.6549	-5.6609	0.9084	-6.8536	-1.1475	2.1013	-9.3983	-3.7905	-2.2803	0.4515	-4.5192	1.9184	-11.1605	-8.7097	-9.5747	-0.8679	-4.6568	5.7431	0.333	0.333	0.333	0.333	0.333	0.333	0.333	0.333	0.333	0.333	0.333	0.333	0.333	0.333	0.333	0.333	0.333	0.333	0.333	6.327	1.4971	4.7273	7	144	1.17155291306982	0	1
"145"	7	56	3	4	11.44	0	3	1	1	0.785	8.1897	18.0797	0.2356	8.7015	16.2219	10.4555	9.3201	12.9198	7.8292	13.4945	16.3116	7.5862	14.775	7.8486	9.8779	17.0842	18.067	9.4766	4.6697	19.1042	0.2738	0.3893	0.2045	0.5306	0.2489	0.4381	0.2678	0.432	0.2882	0.3643	0.2358	0.4608	0.2459	0.3158	0.2416	0.3846	0.2038	0.3064	0.5007	6.333	1.4239	2.2191	7	145	-0.242071561199729	1	0
"146"	7	25	3	0	0	0	9	-1	0	2.935	2.2452	6.4011	2.7507	-0.1834	-4.3547	-0.5475	6.5781	-4.4629	-2.38	4.6961	2.8221	-4.082	-0.3585	-6.6689	-2.2557	1.0356	-5.8459	10.8158	-8.4329	2.1852	0.3112	0.3637	0.459	0.2493	0.4398	0.2588	0.3276	0.4465	0.2372	0.3889	0.3364	0.3804	0.3458	0.2804	0.2178	0.3217	0.285	0.4435	0.2331	6.3263	1.6192	4.5688	7	146	1.07670745328006	0	1
"147"	7	11	3	0	0	0	5	1	0	1.41	-2.4827	8.9865	0.122	8.7785	-3.1513	1.6512	-2.4626	-0.6512	-7.4601	-2.7556	5.4812	-0.5739	-10.1957	4.3633	-0.8629	5.5403	0.4621	-6.7414	1.3834	1.1822	0.2559	0.2082	0.4396	0.2048	0.4536	0.2509	0.3908	0.4882	0.3126	0.274	0.3587	0.5041	0.232	0.2782	0.2198	0.3023	0.4249	0.4764	0.2462	6.3211	1.6112	3.028	7	147	0.343589704390077	1	0
"148"	7	3	3	-1	-2.86	1	10	1	0	3.244	-3.0721	-7.4899	3.0308	1.2328	-2.3521	-3.0045	-0.4628	6.5846	-0.949	-2.8338	-4.9678	-6.3636	-8.5305	-2.2001	-1.4486	-4.9801	-17.9885	1.1053	-4.8668	1.1938	0.333	0.333	0.333	0.333	0.333	0.333	0.333	0.333	0.333	0.333	0.333	0.333	0.333	0.333	0.333	0.333	0.333	0.333	0.333	6.327	1.6817	4.9446	7	148	1.17680713625317	1	0
"149"	7	37	3	-2	-5.72	0	4	1	0	0.985	-6.9262	-14.187	-9.1077	-2.0369	-8.9792	-4.7249	-2.6242	4.9705	-0.7132	-8.7336	-11.4561	-2.0728	-7.5394	1.3346	-5.7454	-3.1692	-5.4132	-1.0511	-13.7848	-10.789	0.2005	0.2505	0.4807	0.5126	0.3396	0.2025	0.3067	0.254	0.5084	0.4212	0.5196	0.2912	0.209	0.2887	0.4214	0.2753	0.3137	0.2479	0.2836	6.327	1.4549	2.4522	7	149	-0.0151136378100482	1	0
"150"	7	10	3	-1	-2.86	0	7	-1	1	2.337	-7.3248	1.5765	-3.9191	-9.8881	-7.1999	-1.4544	-7.2197	3.8795	-5.7535	3.2757	-2.4783	-10.765	-3.7595	2.6567	-0.7335	1.1109	-1.8723	-5.2752	7.1471	-8.2889	0.2075	0.3981	0.495	0.3455	0.2446	0.4196	0.2459	0.3163	0.4809	0.2064	0.3385	0.4385	0.2772	0.2177	0.3676	0.2975	0.2333	0.494	0.3022	6.3262	1.7098	4.055	7	150	0.848868055556721	0	1
"151"	7	49	3	4	11.44	1	6	1	1	1.782	12.0731	10.0411	0.914	6.6898	12.2058	5.735	5.469	11.0013	22.0027	15.0601	15.5151	11.1112	16.2585	14.1443	9.6102	7.1131	11.9991	9.7538	20.0576	10.4245	0.333	0.333	0.333	0.333	0.333	0.333	0.333	0.333	0.333	0.333	0.333	0.333	0.333	0.333	0.333	0.333	0.333	0.333	0.333	6.327	1.4063	3.1994	7	151	0.577736329048618	1	0
"152"	7	14	3	4	11.44	0	2	1	1	0.435	13.7447	13.237	10.17	10.2262	6.4759	10.4261	23.2863	13.4466	6.4364	9.3913	0.9869	7.392	8.9898	18.0725	13.9622	17.1954	16.5231	11.2157	7.9909	9.8649	0.2023	0.3574	0.4357	0.2676	0.3339	0.4979	0.3748	0.3058	0.2269	0.3182	0.4525	0.2368	0.2086	0.446	0.2764	0.4037	0.2634	0.4192	0.2941	6.3212	1.5858	2.0358	7	152	-0.832409247893453	1	0
"153"	7	59	3	-1	-2.86	1	2	-1	1	0.513	-6.4336	-3.1173	-3.5921	5.5396	8.6062	0.1992	-2.895	-8.1236	-3.3801	-7.539	-2.4814	-5.8399	-8.8959	-3.3146	-3.8891	6.3213	-3.993	-10.0515	-4.9688	1.1892	0.333	0.333	0.333	0.333	0.333	0.333	0.333	0.333	0.333	0.333	0.333	0.333	0.333	0.333	0.333	0.333	0.333	0.333	0.333	6.327	1.6204	2.1472	7	153	-0.667479433811368	0	1
"154"	7	65	3	-2	-5.72	0	2	-1	1	0.664	-4.1126	-3.8753	-13.5175	-6.3403	-6.4957	-7.229	-16.5739	-4.5147	-1.9076	-15.3295	-3.4065	-11.8265	-3.4339	-1.3617	-1.8043	-6.1696	-0.531	-5.4457	-1.5721	0.7369	0.3768	0.5044	0.2125	0.3606	0.2704	0.3927	0.4177	0.2639	0.367	0.2062	0.3727	0.3104	0.3882	0.2699	0.2037	0.2495	0.2124	0.4432	0.4967	6.319	1.6338	2.2981	7	154	-0.409473129505703	0	1
"155"	7	9	3	-2	-5.72	0	2	-1	1	0.676	-3.1446	-15.6133	-1.0945	-9.0866	-7.392	-1.3898	-5.2329	-8.3798	-9.6369	-15.015	-5.2707	-5.0789	0.6715	0.2083	-0.2674	-12.4529	-2.164	-0.8573	-3.5128	-10.9407	0.3008	0.3917	0.4283	0.3421	0.3085	0.3917	0.2393	0.2869	0.3233	0.2173	0.5192	0.2005	0.2397	0.2854	0.3126	0.3643	0.4328	0.4024	0.343	6.3298	1.5301	2.2098	7	155	-0.391562202939173	0	1
"156"	7	21	3	4	11.44	1	2	1	1	0.593	12.4328	4.0261	22.145	6.5844	12.6433	11.999	14.547	8.9015	11.776	16.1869	9.1343	13.0008	11.6898	2.1084	12.2302	16.0005	6.1055	12.9979	17.8159	4.7465	0.333	0.333	0.333	0.333	0.333	0.333	0.333	0.333	0.333	0.333	0.333	0.333	0.333	0.333	0.333	0.333	0.333	0.333	0.333	6.327	1.4933	2.0933	7	156	-0.522560879984412	1	0
"157"	7	4	3	0	0	1	5	-1	1	1.64	-0.1458	1.1525	-3.7008	-1.4077	5.516	-2.5979	7.8538	-6.3655	-5.6229	0.1619	-1.551	-1.5398	-6.6998	-1.5996	1.8531	7.4642	12.259	0.6433	-3.4569	-3.8051	0.333	0.333	0.333	0.333	0.333	0.333	0.333	0.333	0.333	0.333	0.333	0.333	0.333	0.333	0.333	0.333	0.333	0.333	0.333	6.327	1.4974	3.1407	7	157	0.494696241836107	0	1
"158"	7	68	3	1	2.86	0	3	-1	0	0.671	-0.807	6.5937	1.7269	-6.1199	-3.2375	8.1257	-2.1781	12.5164	-3.2362	6.7949	1.3907	-0.3696	-3.8635	5.6381	8.7698	4.6422	4.2705	4.2476	8.3896	2.8933	0.2915	0.2332	0.2616	0.2213	0.5068	0.2615	0.4327	0.4925	0.383	0.2223	0.4332	0.2258	0.3064	0.2603	0.2304	0.5145	0.3593	0.26	0.4333	6.3296	1.5819	2.2556	7	158	-0.398986142010455	0	1
"159"	7	24	3	-1	-2.86	0	3	-1	1	0.791	-0.7495	-8.4873	-6.083	-4.588	-2.4408	3.728	-12.4382	-0.6862	-2.7353	-7.4139	4.1582	-4.338	-3.2539	-7.4192	-9.2659	-1.4274	0.9094	6.1845	-5.3198	4.8451	0.293	0.461	0.3041	0.3369	0.4378	0.2112	0.3469	0.2573	0.4353	0.324	0.4031	0.3588	0.3185	0.4985	0.3394	0.2728	0.2336	0.2649	0.2222	6.3194	1.6738	2.4589	7	159	-0.234457311214483	0	1
"160"	7	42	3	4	11.44	0	3	1	1	0.65	14.9704	8.719	18.7747	8.2576	4.9968	7.0103	8.7775	5.4212	22.2941	12.7575	13.0002	13.4395	6.755	4.9613	8.1246	12.9952	15.8188	13.0816	18.4575	8.7139	0.2657	0.3388	0.2029	0.4674	0.2622	0.2235	0.3473	0.4274	0.3585	0.4034	0.2617	0.2904	0.2603	0.4915	0.432	0.3909	0.2551	0.4306	0.2198	6.3295	1.6671	2.3345	7	160	-0.430782916092454	1	0
"161"	7	50	3	-4	-11.44	0	3	-1	1	0.551	-11.5268	-10.5934	-8.2266	-13.3945	-16.6108	-9.1818	-14.6848	-18.2658	-11.4347	-12.0613	-10.1811	-13.5386	-11.9615	-14.0814	-17.3512	4.5336	-12.5306	-6.7632	-13.7778	-6.7908	0.3049	0.2322	0.306	0.2117	0.2396	0.2032	0.4463	0.3348	0.5027	0.3402	0.3922	0.5071	0.2574	0.2276	0.3308	0.2438	0.4945	0.3182	0.4313	6.3246	1.431	2.0021	7	161	-0.596020469829223	0	1
"162"	7	23	3	-2	-5.72	0	3	-1	1	0.602	-7.4492	-1.4861	-5.7769	-1.9862	-9.7594	-7.1361	-3.0289	4.1813	-4.9912	-4.9592	-0.9471	-7.3199	-10.1467	-7.612	0.0345	-3.1633	-11.8932	-0.6733	-17.2622	-11.9595	0.2549	0.2988	0.2664	0.4137	0.2404	0.2985	0.33	0.4047	0.3563	0.4173	0.454	0.2848	0.3145	0.2559	0.2027	0.4163	0.5327	0.3637	0.2306	6.3363	1.4276	2.0526	7	162	-0.507497833673316	0	1
"163"	7	22	3	-4	-11.44	0	2	-1	1	0.64	-11.1225	-5.8265	-12.2368	-8.538	-13.4928	-11.7933	-10.5506	-13.2256	-10.5227	-2.4337	-23.3439	-16.7441	-6.2055	-14.7263	-15.3968	-6.2107	-16.5599	-11.2479	-14.8318	-4.1358	0.2767	0.4333	0.5186	0.257	0.2825	0.3603	0.2616	0.3204	0.217	0.3783	0.2559	0.4806	0.2888	0.3736	0.4603	0.3039	0.2062	0.41	0.2404	6.3255	1.5268	2.1744	7	163	-0.446287102628419	0	1
"164"	7	39	3	0	0	0	4	1	1	0.816	1.5512	4.5391	-3.4287	8.6449	7.754	-1.8707	1.5769	-5.7852	-10.1432	-0.9788	-8.558	6.8276	3.3944	1.254	0.0241	-4.3148	-0.0836	-1.6589	0.4378	-0.0438	0.2416	0.3318	0.214	0.4162	0.2021	0.4197	0.2871	0.5097	0.2774	0.4746	0.2012	0.2512	0.4262	0.3009	0.3509	0.2701	0.4988	0.2274	0.4278	6.3287	1.5161	2.3497	7	164	-0.20334092401803	1	0
"165"	7	27	3	2	5.72	0	2	1	1	0.445	2.7156	-1.744	5.5051	5.9772	3.1763	0.6633	7.7524	5.0048	6.5838	2.2786	12.9735	7.8285	18.5908	8.4679	-1.9187	8.8898	4.6264	1.1338	5.9215	11.4328	0.298	0.5065	0.3245	0.2765	0.248	0.4073	0.2892	0.2571	0.2285	0.4868	0.3942	0.2135	0.5027	0.226	0.3652	0.2495	0.503	0.231	0.3151	6.3226	1.7265	2.1792	7	165	-0.809680996815897	1	0
"166"	7	5	3	1	2.86	1	2	1	1	0.622	5.9263	4.8843	-3.9801	0.3184	14.2683	1.2138	3.0238	6.6818	-2.7099	2.5812	8.864	5.213	-3.6754	3.1536	-6.3116	3.3462	2.8651	1.5376	-0.3119	8.6765	0.333	0.333	0.333	0.333	0.333	0.333	0.333	0.333	0.333	0.333	0.333	0.333	0.333	0.333	0.333	0.333	0.333	0.333	0.333	6.327	1.42	2.0555	7	166	-0.474815186242958	1	0
"167"	7	16	3	-2	-5.72	1	3	-1	1	0.877	-1.3493	-9.7028	-4.5956	-3.9813	1.5046	-14.7668	-17.0135	-1.4922	-5.9622	-8.4892	-5.2617	-6.6423	3.3123	-0.0163	-2.7626	-7.7255	-7.0898	-7.6979	-8.6899	-7.5439	0.333	0.333	0.333	0.333	0.333	0.333	0.333	0.333	0.333	0.333	0.333	0.333	0.333	0.333	0.333	0.333	0.333	0.333	0.333	6.327	1.4746	2.3609	7	167	-0.131248286609954	0	1
"168"	7	63	3	4	11.44	1	3	1	1	0.719	7.2621	23.9319	8.673	11.5797	15.4511	13.5697	8.5512	4.7333	15.1017	9.0872	6.0163	5.7621	13.9124	20.0107	13.2116	13.7567	11.3552	6.3418	6.4965	14.8721	0.333	0.333	0.333	0.333	0.333	0.333	0.333	0.333	0.333	0.333	0.333	0.333	0.333	0.333	0.333	0.333	0.333	0.333	0.333	6.327	1.5	2.2365	7	168	-0.32989392126109	1	0
"169"	7	41	3	2	5.72	0	3	-1	0	0.772	2.5249	4.8595	3.9321	7.3721	13.7959	0.4475	-3.159	-5.7286	4.3097	13.5804	8.9078	6.1976	7.5131	13.2615	7.1184	4.0336	8.6262	3.507	4.5737	8.618	0.285	0.2176	0.2997	0.3679	0.4623	0.3633	0.2563	0.2264	0.4848	0.3998	0.2434	0.283	0.4413	0.3368	0.3988	0.2284	0.4143	0.3624	0.2551	6.3267	1.425	2.2065	7	169	-0.258770728957361	0	1
"170"	7	29	3	-4	-11.44	1	2	-1	1	0.614	-15.8635	-10.4464	-9.9761	-10.251	-14.4471	-11.8109	-11.3111	-11.652	-12.9891	-18.2778	-8.6729	-10.5708	-1.0461	-10.5798	-13.5631	-8.0816	-20.9184	1.5091	-13.779	-14.2469	0.333	0.333	0.333	0.333	0.333	0.333	0.333	0.333	0.333	0.333	0.333	0.333	0.333	0.333	0.333	0.333	0.333	0.333	0.333	6.327	1.4256	2.0485	7	170	-0.487760350834995	0	1
"171"	7	47	3	1	2.86	1	6	1	1	1.95	3.1607	-1.1166	-0.1674	6.9258	4.4261	11.0165	-2.8432	4.1934	9.8765	1.4741	-1.858	7.6245	2.8383	-1.6905	-6.3467	4.6426	3.8301	-0.1659	-0.17	12.7252	0.333	0.333	0.333	0.333	0.333	0.333	0.333	0.333	0.333	0.333	0.333	0.333	0.333	0.333	0.333	0.333	0.333	0.333	0.333	6.327	1.5608	3.5175	7	171	0.667829372575655	1	0
"172"	7	52	3	-1	-2.86	0	8	-1	1	2.413	-4.258	0.9724	-5.8747	4.2193	0.1893	-0.9483	-6.7387	-10.0532	-8.9223	-5.6378	7.4053	-1.8433	-5.2572	-11.6091	-2.5115	-1.2055	-2.8524	-3.2338	-5.7239	5.1377	0.3305	0.2886	0.2365	0.2743	0.3842	0.2319	0.2802	0.4914	0.2685	0.324	0.4156	0.2194	0.2669	0.4181	0.294	0.4968	0.3713	0.5261	0.2082	6.3264	1.6406	4.0636	7	172	0.880870786642895	0	1
"173"	7	31	3	-1	-2.86	1	3	-1	1	0.973	-4.8348	-5.6158	-0.5052	-8.4509	-5.1886	-0.5383	-9.028	-5.563	-2.2462	6.575	-2.7465	-4.6472	0.7431	0.8401	1.7361	2.8999	-0.4159	-12.1361	1.3617	-11.3516	0.333	0.333	0.333	0.333	0.333	0.333	0.333	0.333	0.333	0.333	0.333	0.333	0.333	0.333	0.333	0.333	0.333	0.333	0.333	6.327	1.4525	2.4234	7	173	-0.027371196796132	0	1
"174"	7	60	3	0	0	1	6	1	1	1.962	4.8789	1.4474	-1.553	11.476	0.935	-11.9882	1.1039	-3.1524	6.3299	-1.4705	2.9967	1.5377	3.0383	-1.3277	2.7063	0.7672	-6.9091	-1.7884	-5.9243	-2.2513	0.333	0.333	0.333	0.333	0.333	0.333	0.333	0.333	0.333	0.333	0.333	0.333	0.333	0.333	0.333	0.333	0.333	0.333	0.333	6.327	1.6746	3.6458	7	174	0.673964361143171	1	0
"175"	7	36	3	-4	-11.44	0	4	-1	1	1.155	-12.153	-9.9783	-7.5425	-11.6723	-8.9321	-18.6645	-9.2527	-7.7641	-5.9408	-21.4293	-9.6741	-8.6758	-5.8627	-21.148	-10.9357	-5.0774	-13.4282	-16.843	-15.891	-8.5898	0.2812	0.4392	0.2855	0.3414	0.298	0.2578	0.2284	0.3199	0.4184	0.3588	0.4345	0.3419	0.2578	0.3187	0.21	0.3233	0.4803	0.2966	0.4271	6.3189	1.677	2.8386	7	175	0.144100343973757	0	1
"176"	7	28	3	4	11.44	0	7	1	1	2.086	10.3394	6.3263	11.5233	13.8718	17.4465	11.5483	7.7834	16.9073	11.8964	9.218	10.5201	13.1836	-0.8012	5.8446	7.1988	9.533	18.8757	20.4766	11.6566	13.4684	0.222	0.3396	0.2157	0.2682	0.3787	0.4432	0.2467	0.3352	0.3665	0.2999	0.3961	0.2824	0.4139	0.3401	0.4125	0.3014	0.2419	0.5295	0.2887	6.3221	1.4971	3.5865	7	176	0.735248356578581	1	0
"177"	7	17	3	-1	-2.86	1	9	-1	1	2.893	-5.9903	-2.2456	-2.141	-2.9084	0.7318	3.6642	-9.1988	-9.5515	-6.5653	-6.2351	3.1592	-7.6335	-6.6585	2.1809	8.257	2.1247	-9.3786	-0.9302	-5.377	-4.35	0.333	0.333	0.333	0.333	0.333	0.333	0.333	0.333	0.333	0.333	0.333	0.333	0.333	0.333	0.333	0.333	0.333	0.333	0.333	6.327	1.6697	4.5774	7	177	1.062294025994	0	1
"178"	7	15	3	-4	-11.44	1	2	-1	1	0.608	-9.875	-7.6254	-16.4343	-12.4543	-14.9406	-13.9422	-9.8866	-4.2418	-3.5474	-19.1581	-4.8752	-8.5797	-12.9509	-18.838	-7.4241	-3.9456	-16.15	-17.581	-11.4145	-15.1932	0.333	0.333	0.333	0.333	0.333	0.333	0.333	0.333	0.333	0.333	0.333	0.333	0.333	0.333	0.333	0.333	0.333	0.333	0.333	6.327	1.6253	2.2418	7	178	-0.49758039701597	0	1
"179"	7	30	3	-2	-5.72	1	3	-1	1	0.833	-7.9645	-17.8258	-7.0613	-13.6903	-2.5895	-3.2029	-5.5271	-7.6749	1.6041	-0.5763	0.5716	-8.6458	-11.1261	-0.399	-1.3999	-4.8665	-10.4628	-4.6311	-7.6749	-3.0486	0.333	0.333	0.333	0.333	0.333	0.333	0.333	0.333	0.333	0.333	0.333	0.333	0.333	0.333	0.333	0.333	0.333	0.333	0.333	6.327	1.4018	2.2506	7	179	-0.182721636815294	0	1
"180"	7	51	3	-2	-5.72	0	5	-1	1	1.536	-1.7709	-4.1488	-7.2776	-7.7759	-11.5926	-11.646	-5.7607	-9.5424	5.9661	-7.935	-15.9248	3.7644	-8.0814	-4.3279	-5.4491	-6.0615	-6.26	-3.5256	-3.2098	-5.1705	0.5216	0.3646	0.2476	0.3073	0.3505	0.2187	0.3798	0.4548	0.5067	0.3937	0.286	0.2279	0.3361	0.2098	0.2702	0.23	0.2734	0.2294	0.5098	6.3177	1.6109	3.1532	7	180	0.42918163472548	0	1
"181"	7	57	3	-4	-11.44	1	5	-1	1	1.467	-14.7861	-1.3279	-13.0643	-16.6826	-9.5199	-11.8205	-9.0962	-8.6106	-8.5719	-4.4594	-4.0996	-13.8009	-10.9763	-8.8477	-21.2207	-16.6832	-13.413	-17.0073	-6.7871	-16.185	0.333	0.333	0.333	0.333	0.333	0.333	0.333	0.333	0.333	0.333	0.333	0.333	0.333	0.333	0.333	0.333	0.333	0.333	0.333	6.327	1.5976	3.0847	7	181	0.383219499160845	0	1
"182"	7	7	3	4	11.44	1	3	-1	0	0.771	11.7215	6.9435	10.2137	6.5289	11.4969	15.2579	12.8725	20.8802	8.4051	13.6711	7.1342	6.3758	12.9473	11.5767	10.1536	19.4397	20.3754	10.256	11.7852	0.2112	0.333	0.333	0.333	0.333	0.333	0.333	0.333	0.333	0.333	0.333	0.333	0.333	0.333	0.333	0.333	0.333	0.333	0.333	0.333	6.327	1.6504	2.4382	7	182	-0.260066905418808	0	1
"183"	7	62	3	2	5.72	1	8	1	1	2.584	1.6186	6.8484	8.0823	2.6162	7.3694	7.2188	13.6859	6.2724	7.4349	12.6656	-3.6578	4.6063	-0.3496	11.8776	-1.2528	10.2147	-2.5505	10.3108	4.8576	8.3241	0.333	0.333	0.333	0.333	0.333	0.333	0.333	0.333	0.333	0.333	0.333	0.333	0.333	0.333	0.333	0.333	0.333	0.333	0.333	6.327	1.6085	4.2009	7	183	0.949338585920355	1	0
"184"	7	69	3	2	5.72	0	4	1	1	1.211	9.8295	10.4516	8.9252	10.3515	-3.0207	-0.9784	-0.4766	10.2736	9.3465	2.2961	2.813	8.2061	5.7591	6.3397	7.6996	0.2903	14.8596	-0.3489	8.1018	2.7615	0.4148	0.2925	0.2627	0.5085	0.314	0.3856	0.4367	0.2619	0.4582	0.4846	0.4202	0.2675	0.2039	0.2784	0.3295	0.2011	0.2368	0.362	0.2136	6.3326	1.4575	2.6788	7	184	0.191446464570955	1	0
"185"	7	26	3	1	2.86	0	3	1	1	0.676	-0.1212	7.4806	-7.8258	4.6692	4.1528	1.1841	7.1805	0.3656	2.6713	2.2185	16.1952	0.5817	-0.8305	1.7081	7.25	4.4097	3.5461	7.7507	-4.0913	0.4795	0.2075	0.2929	0.3948	0.2732	0.5232	0.3535	0.2883	0.3722	0.2412	0.3125	0.3904	0.228	0.5036	0.2093	0.4685	0.2256	0.3121	0.3447	0.386	6.3275	1.4211	2.1101	7	185	-0.391562202939173	1	0
"186"	7	55	3	2	5.72	0	6	1	1	1.846	5.9442	-3.7931	4.1271	9.652	11.2009	-1.2412	7.7968	3.3207	13.8414	4.7102	11.3233	4.625	2.975	-3.0046	14.1154	3.0355	5.3013	5.2216	8.1016	5.243	0.3485	0.4816	0.3857	0.3592	0.2659	0.4041	0.2002	0.2288	0.2803	0.4609	0.3392	0.2498	0.4785	0.4341	0.2657	0.3421	0.2117	0.3588	0.2395	6.3347	1.4129	3.2632	7	186	0.61302113608066	1	0
"187"	7	32	3	0	0	1	7	1	0	2.119	1.347	-3.6895	3.6703	12.3093	-0.3936	4.0278	-2.1128	-9.4053	-9.437	2.3015	2.1918	2.6591	3.5605	0.3605	-0.3641	-5.3045	-1.4962	-4.9129	-1.1975	4.1594	0.333	0.333	0.333	0.333	0.333	0.333	0.333	0.333	0.333	0.333	0.333	0.333	0.333	0.333	0.333	0.333	0.333	0.333	0.333	6.327	1.6633	3.7868	7	187	0.750944279286162	1	0
"188"	7	53	3	0	0	0	10	1	1	3.114	-2.1097	-0.0532	1.7314	-2.538	-8.939	-5.416	0.8354	8.9344	5.6584	-1.8947	7.8352	-7.3601	0.3689	-4.2715	0.9953	10.4117	-1.6919	0.3888	-2.1517	-1.3969	0.2855	0.4473	0.21	0.4586	0.3599	0.2477	0.4468	0.2746	0.2417	0.2072	0.519	0.413	0.2622	0.2203	0.3789	0.2551	0.3071	0.5124	0.273	6.3203	1.5154	4.6318	7	188	1.13590807341181	1	0
"189"	7	40	3	1	2.86	0	6	1	1	2.008	-0.7562	2.0445	2.8843	6.0803	9.7241	1.1876	12.0441	5.434	3.9973	4.3063	1.3001	3.8159	5.3843	-8.1977	6.6584	0.0541	-6.8644	-0.1047	-0.1934	9.3636	0.3258	0.4931	0.2695	0.3626	0.2524	0.3467	0.3174	0.4599	0.4114	0.2471	0.3664	0.2224	0.3589	0.4472	0.3575	0.2394	0.2129	0.3663	0.2668	6.3238	1.6809	3.6919	7	189	0.697139201829483	1	0
"190"	7	1	3	-4	-11.44	1	3	-1	1	0.713	-12.2056	-16.0716	-13.5629	-9.4929	-14.8213	-14.5083	-21.3087	-9.5675	-2.92	-2.0827	-6.9273	-13.0707	-11.258	-7.9876	-7.8825	-6.5976	-17.5129	-11.3031	-18.8203	-10.9988	0.333	0.333	0.333	0.333	0.333	0.333	0.333	0.333	0.333	0.333	0.333	0.333	0.333	0.333	0.333	0.333	0.333	0.333	0.333	6.327	1.4539	2.164	7	190	-0.338273858567841	0	1
"191"	7	70	3	4	11.44	0	3	1	1	0.858	11.4862	14.6064	8.7426	4.2641	23.0834	13.5862	8.9258	16.6309	15.3085	7.6263	11.9915	15.7396	7.687	3.6356	16.431	8.8224	11.8952	14.2306	6.7793	5.823	0.3601	0.4012	0.4428	0.3876	0.43	0.2134	0.3179	0.2846	0.3952	0.3349	0.2075	0.4128	0.3124	0.2134	0.2674	0.4013	0.2016	0.4742	0.2693	6.3276	1.5458	2.4253	7	191	-0.153151179494175	1	0
"192"	7	12	3	1	2.86	0	9	1	1	2.717	4.3737	13.9473	5.9392	3.6488	-3.4214	6.1471	-2.4986	9.1069	5.1781	-4.6133	-1.795	3.2518	-2.2024	10.2331	3.193	3.3391	-1.9882	-2.9225	1.8113	5.2514	0.2832	0.3482	0.2045	0.4331	0.3169	0.2247	0.4694	0.2709	0.5301	0.254	0.2011	0.4928	0.2173	0.4429	0.328	0.3658	0.3032	0.2508	0.3807	6.3175	1.4101	4.1513	7	192	0.999528330444211	1	0
"193"	7	33	3	1	2.86	1	7	1	1	2.056	7.0895	-8.6524	5.3961	4.1908	7.093	10.0536	-1.6673	-3.69	8.7184	3.7302	5.103	3.0572	-3.3004	-3.8979	2.8563	7.3583	0.6699	5.3898	6.07	1.0755	0.333	0.333	0.333	0.333	0.333	0.333	0.333	0.333	0.333	0.333	0.333	0.333	0.333	0.333	0.333	0.333	0.333	0.333	0.333	6.327	1.4517	3.5237	7	193	0.720762347592919	1	0
"194"	7	67	3	0	0	0	4	1	0	0.75	2.516	2.0014	-1.1968	-11.3959	0.9061	2.2932	2.8686	-4.207	1.1308	0.8648	-3.1586	1.1383	-10.68	-2.2146	2.471	6.8237	2.7335	-5.6983	5.6677	7.8974	0.2056	0.3153	0.2175	0.5295	0.3198	0.4625	0.2994	0.5324	0.2806	0.3178	0.3834	0.2072	0.2389	0.317	0.2427	0.3953	0.5232	0.2882	0.2572	6.3333	1.4656	2.2342	7	194	-0.287682072451781	1	0
"195"	7	8	3	-4	-11.44	0	3	-1	1	0.642	-8.6032	-13.2003	-15.7183	-20.643	-17.4868	-6.5401	-12.643	-17.7049	-6.7301	-14.566	-13.2449	-6.7868	-7.2503	-12.0549	-0.3233	-10.0112	-13.1807	-9.9466	-5.0375	-15.6842	0.2549	0.3275	0.2259	0.4658	0.2476	0.5159	0.4288	0.2402	0.293	0.3252	0.2877	0.2476	0.3984	0.3557	0.4394	0.5251	0.2152	0.3046	0.2264	6.3248	1.6622	2.3095	7	195	-0.443166975292176	0	1
"196"	7	66	3	-1	-2.86	0	7	1	0	2.305	1.3374	3.4235	-4.5378	-4.0412	-1.8125	-0.8323	-7.0609	-3.9867	-2.1705	-2.547	-4.2258	-13.5018	1.3792	-11.1638	5.7031	2.5042	-2.9855	-0.7846	1.3251	-11.8621	0.2539	0.3851	0.4938	0.3439	0.3839	0.2536	0.337	0.3807	0.2065	0.46	0.2348	0.4322	0.2528	0.5146	0.3198	0.2445	0.2082	0.2399	0.3874	6.3326	1.6544	3.9729	7	196	0.835080676448612	1	0
"197"	7	20	3	2	5.72	1	9	-1	0	2.935	9.858	6.2349	2.8649	8.3984	3.8439	11.3921	9.2187	10.0686	9.2061	-5.8831	-1.7344	8.3275	3.9584	5.3942	5.7934	8.4063	8.1869	-0.4827	13.4441	-0.9203	0.333	0.333	0.333	0.333	0.333	0.333	0.333	0.333	0.333	0.333	0.333	0.333	0.333	0.333	0.333	0.333	0.333	0.333	0.333	6.327	1.5087	4.4528	7	197	1.07670745328006	0	1
"198"	7	64	3	-4	-11.44	0	6	-1	1	1.852	-8.8633	-10.2586	-7.0428	-18.3294	-10.544	-18.0378	-2.3748	-21.2487	-4.6956	-14.2693	-10.8676	-13.782	-10.6888	-13.1482	-11.6624	-5.64	-11.0101	-11.8744	-18.2929	-6.1798	0.2124	0.3495	0.3045	0.2296	0.4937	0.4585	0.2775	0.2041	0.4446	0.2048	0.3594	0.5246	0.2908	0.2135	0.4518	0.2742	0.3412	0.2915	0.3989	6.325	1.4501	3.3032	7	198	0.616266136223988	0	1
"199"	7	6	3	2	5.72	1	6	1	1	1.859	10.4044	6.9795	-0.3349	10.6313	-1.7687	5.3578	8.0795	13.7416	-3.2377	3.6715	2.2382	8.8026	-1.3146	12.9624	7.7757	11.6515	3.321	6.3294	6.3079	2.6519	0.333	0.333	0.333	0.333	0.333	0.333	0.333	0.333	0.333	0.333	0.333	0.333	0.333	0.333	0.333	0.333	0.333	0.333	0.333	6.327	1.5952	3.4598	7	199	0.620038708739307	1	0
"200"	7	48	3	2	5.72	1	2	1	1	0.611	8.0013	1.5825	8.7652	14.749	7.5903	3.6368	5.4759	10.0699	6.3965	6.5902	10.0263	2.6194	-0.3005	8.0566	0.3867	0.9357	1.5002	-3.3123	16.2129	4.4166	0.333	0.333	0.333	0.333	0.333	0.333	0.333	0.333	0.333	0.333	0.333	0.333	0.333	0.333	0.333	0.333	0.333	0.333	0.333	6.327	1.5858	2.1954	7	200	-0.492658319810542	1	0
"201"	7	44	3	-2	-5.72	1	4	-1	1	1.066	-3.0114	-8.631	-12.3771	-4.869	-2.4492	-17.5262	-4.8952	-8.2954	-8.3884	1.4263	-3.3457	-3.0228	0.9758	-12.7168	1.5976	-7.0479	-3.8212	-4.5391	-2.9605	-11.724	0.333	0.333	0.333	0.333	0.333	0.333	0.333	0.333	0.333	0.333	0.333	0.333	0.333	0.333	0.333	0.333	0.333	0.333	0.333	6.327	1.4938	2.5661	7	201	0.0639133257436529	0	1
"202"	7	35	3	4	11.44	1	3	1	1	0.706	15.3701	10.9197	7.8137	13.6519	4.8176	13.0615	10.6461	13.9182	9.8957	13.3412	20.7084	11.9178	6.3333	18.0102	8.3813	13.0975	5.7988	9.5103	1.652	19.9759	0.333	0.333	0.333	0.333	0.333	0.333	0.333	0.333	0.333	0.333	0.333	0.333	0.333	0.333	0.333	0.333	0.333	0.333	0.333	6.327	1.6504	2.3565	7	202	-0.348140041488895	1	0
"203"	7	61	3	1	2.86	1	13	1	1	4.02	2.3951	7.6535	0.6085	3.65	3.9642	-2.5667	-0.5981	5.9395	9.8933	-2.0817	9.0102	5.0123	-4.6106	0.3856	9.5911	11.7986	-4.6286	-3.589	2.4442	2.2544	0.333	0.333	0.333	0.333	0.333	0.333	0.333	0.333	0.333	0.333	0.333	0.333	0.333	0.333	0.333	0.333	0.333	0.333	0.333	6.327	1.6265	5.6536	7	203	1.39128190263093	1	0
"204"	7	18	3	0	0	1	3	-1	0	0.742	-4.1036	5.3341	-0.3638	-1.3242	1.9063	-4.4581	-1.0417	4.4497	0.2992	-0.8947	4.6231	2.8649	-10.2106	2.9038	0.4701	-11.7231	2.5001	8.6617	2.025	-1.2909	0.333	0.333	0.333	0.333	0.333	0.333	0.333	0.333	0.333	0.333	0.333	0.333	0.333	0.333	0.333	0.333	0.333	0.333	0.333	6.327	1.5782	2.3258	7	204	-0.298406035814757	0	1
"205"	7	34	3	2	5.72	1	6	1	1	1.726	4.3781	-2.2229	15.8509	3.622	9.508	4.8982	6.151	12.1522	9.6714	2.2297	5.4061	4.7296	-3.0814	9.197	-1.365	11.6678	5.8631	9.8605	-0.4606	5.9377	0.333	0.333	0.333	0.333	0.333	0.333	0.333	0.333	0.333	0.333	0.333	0.333	0.333	0.333	0.333	0.333	0.333	0.333	0.333	6.327	1.5917	3.3263	7	205	0.545806592661236	1	0
"206"	7	2	3	-2	-5.72	1	6	-1	1	1.694	-1.9907	-0.0242	-6.6023	-4.9833	-8.4697	0.593	-16.1244	-7.8282	0.8936	-0.6552	-4.5587	-8.5809	-7.9761	-8.3144	-9.445	-4.1056	1.7957	-5.2695	-14.6111	-8.783	0.333	0.333	0.333	0.333	0.333	0.333	0.333	0.333	0.333	0.333	0.333	0.333	0.333	0.333	0.333	0.333	0.333	0.333	0.333	6.327	1.7136	3.4284	7	206	0.527092596229863	0	1
"207"	7	58	3	-2	-5.72	1	3	-1	1	0.734	-6.7139	-5.3045	-10.3471	-2.6571	-6.1947	-5.9068	-8.9631	-3.2485	-11.9353	-6.0828	-10.2011	5.6856	-6.1375	-12.8287	-6.6013	-2.7649	-7.8706	6.8396	-5.5105	-7.011	0.333	0.333	0.333	0.333	0.333	0.333	0.333	0.333	0.333	0.333	0.333	0.333	0.333	0.333	0.333	0.333	0.333	0.333	0.333	6.327	1.4096	2.1516	7	207	-0.309246250367621	0	1
"208"	7	46	3	0	0	1	10	1	1	3.249	1.3867	2.6608	-2.1576	6.2247	-4.6426	1.9372	2.0953	1.8419	-2.5671	-1.234	0.2293	5.2719	4.6767	3.7675	-10.1403	6.4618	2.9761	0.3609	-9.9402	-8.9277	0.333	0.333	0.333	0.333	0.333	0.333	0.333	0.333	0.333	0.333	0.333	0.333	0.333	0.333	0.333	0.333	0.333	0.333	0.333	6.327	1.6518	4.9169	7	208	1.17834725668696	1	0
"209"	7	13	3	2	5.72	0	9	1	1	2.749	9.2836	4.0176	3.5334	2.6015	11.0058	3.1712	3.6964	8.7349	18.2411	8.4921	-6.6031	8.4658	2.4364	3.7874	7.9261	4.2281	9.9295	7.1357	-0.121	3.4617	0.2823	0.3098	0.5084	0.3671	0.212	0.2884	0.2	0.3759	0.4815	0.3588	0.433	0.2848	0.4652	0.2192	0.3284	0.2601	0.2251	0.482	0.2542	6.3361	1.7147	4.4831	7	209	1.01123720918311	1	0
"210"	7	43	3	-4	-11.44	1	3	-1	1	0.831	-6.9864	-9.8847	-11.8955	-5.8328	-13.2595	-9.739	-7.7637	-12.7414	-17.0983	-12.3856	-8.4768	-6.837	-7.3415	-13.2415	-10.7283	-4.8377	-22.6042	-14.0352	-9.068	-22.4721	0.333	0.333	0.333	0.333	0.333	0.333	0.333	0.333	0.333	0.333	0.333	0.333	0.333	0.333	0.333	0.333	0.333	0.333	0.333	6.327	1.685	2.5323	7	210	-0.185125484126689	0	1
"211"	7	56	4	4	11.44	0	4	1	1	1.105	11.1898	3.1852	2.9582	9.7983	9.12	8.9683	13.2328	18.0602	9.9153	10.7599	9.2369	7.8282	18.7105	13.342	11.1218	3.9482	11.2679	18.2371	19.1141	18.4568	0.3511	0.2144	0.4228	0.2112	0.4436	0.407	0.3039	0.3866	0.2168	0.4829	0.3654	0.2007	0.5114	0.2075	0.2827	0.4005	0.4272	0.2308	0.2564	6.3229	1.4861	2.6057	7	211	0.0998453349697161	1	0
"212"	7	49	4	4	11.44	1	3	1	1	0.752	8.5519	14.9933	20.7174	10.6033	7.9195	7.2628	6.5544	16.6095	-0.4338	15.1147	10.433	6.0027	8.798	11.9909	12.5806	17.7164	7.8359	13.2938	13.9152	17.427	0.333	0.333	0.333	0.333	0.333	0.333	0.333	0.333	0.333	0.333	0.333	0.333	0.333	0.333	0.333	0.333	0.333	0.333	0.333	6.327	1.429	2.1862	7	212	-0.285018955032297	1	0
"213"	7	69	4	2	5.72	0	2	1	1	0.616	9.9603	17.6988	-0.4537	6.6966	5.4597	2.954	9.6885	0.3305	0.9319	2.3555	4.0273	11.5876	7.638	2.5921	3.6285	3.1185	7.4463	-2.9514	11.4954	8.514	0.4284	0.2477	0.3579	0.2336	0.5057	0.3202	0.4697	0.2529	0.4845	0.2447	0.2014	0.2665	0.338	0.4936	0.2522	0.4993	0.2149	0.2762	0.2347	6.3221	1.5501	2.1835	7	213	-0.484508315448617	1	0
"214"	7	3	4	-1	-2.86	1	2	-1	1	0.404	-7.0229	-5.8938	4.6247	-7.1631	-0.8137	-3.8727	-8.6315	2.1571	4.8067	-1.9914	3.28	-3.7011	-6.2158	-12.5958	0.2735	-3.3112	-0.9602	-8.5421	-4.4113	4.5116	0.333	0.333	0.333	0.333	0.333	0.333	0.333	0.333	0.333	0.333	0.333	0.333	0.333	0.333	0.333	0.333	0.333	0.333	0.333	6.327	1.7112	2.1219	7	214	-0.906340401020987	0	1
"215"	7	41	4	2	5.72	0	4	1	1	1.108	2.0582	1.5402	11.028	-0.0029	6.6607	2.9766	6.8273	17.2842	9.7569	3.5157	4.2122	4.1518	-4.577	6.7938	9.2787	5.0035	7.6012	8.7355	0.6976	12.6559	0.2057	0.47	0.2416	0.2845	0.2284	0.2808	0.5213	0.4424	0.2644	0.3819	0.2296	0.3752	0.3113	0.3885	0.2646	0.471	0.3108	0.4256	0.2267	6.3243	1.4413	2.5586	7	215	0.102556588325092	1	0
"216"	7	39	4	0	0	0	3	1	0	0.997	2.7364	8.0287	2.6763	5.0635	-1.5525	-0.4818	0.3598	-1.6644	-6.4366	3.7326	3.72	1.9592	-0.5703	2.4647	5.419	-3.2926	-13.7985	-2.1032	0.2474	-6.6995	0.482	0.2651	0.3871	0.4351	0.2085	0.5021	0.2664	0.3435	0.3172	0.2874	0.2333	0.278	0.2229	0.3468	0.4048	0.2753	0.4182	0.2464	0.4094	6.3294	1.5565	2.5638	7	216	-0.00300450902029872	1	0
"217"	7	42	4	4	11.44	0	3	1	1	0.681	8.7732	14.242	20.2303	10.6937	19.0614	15.6287	17.6629	14.0597	12.7223	9.8641	5.3386	10.5232	14.4629	10.4943	12.1539	9.3517	9.8448	7.7898	8.464	-2.0823	0.288	0.2567	0.2159	0.2509	0.3258	0.3926	0.2507	0.4152	0.2874	0.3727	0.4626	0.361	0.291	0.3224	0.3722	0.3147	0.3419	0.4163	0.3805	6.3183	1.7169	2.3988	7	217	-0.384192972832625	1	0
"218"	7	25	4	0	0	0	7	1	1	2.504	-2.817	6.6711	-2.6329	8.2807	-2.8649	3.6638	-5.4403	-0.1161	-10.1189	5.11	-3.5462	0.4088	-5.7747	-1.426	2.3172	2.6749	1.8241	-5.1226	1.5852	8.7227	0.263	0.4079	0.2584	0.289	0.4783	0.5105	0.4289	0.2538	0.3415	0.3765	0.2353	0.2034	0.2594	0.4144	0.3337	0.2337	0.3429	0.3177	0.377	6.3254	1.4762	3.9883	7	218	0.917889453237852	1	0
"219"	7	32	4	0	0	1	3	-1	1	0.862	-2.5778	-2.994	2.0756	2.4257	-2.9896	6.331	1.9864	4.162	-0.5873	-3.6026	9.4799	-3.2264	0.6734	-6.9201	0.911	-9.0427	10.3309	0.0367	0.2885	-5.0126	0.333	0.333	0.333	0.333	0.333	0.333	0.333	0.333	0.333	0.333	0.333	0.333	0.333	0.333	0.333	0.333	0.333	0.333	0.333	6.327	1.6771	2.5458	7	219	-0.148500008318444	0	1
"220"	7	20	4	2	5.72	1	3	1	1	0.913	3.6237	9.702	2.188	2.2785	3.8031	-1.4939	13.131	6.5146	13.8033	-2.2295	10.3494	6.7581	1.7005	5.8918	0.7762	12.7917	2.3455	13.538	3.8833	4.997	0.333	0.333	0.333	0.333	0.333	0.333	0.333	0.333	0.333	0.333	0.333	0.333	0.333	0.333	0.333	0.333	0.333	0.333	0.333	6.327	1.6479	2.5639	7	220	-0.0910193983871685	1	0
"221"	7	24	4	-1	-2.86	0	2	-1	1	0.492	-4.3332	0.3947	-6.354	-8.7802	-5.256	-3.1443	-1.8844	7.093	-3.7496	-4.352	-3.8981	4.0785	3.1295	2.7043	-14.7983	-0.9718	-3.5039	-9.9624	-0.8433	-1.0333	0.2239	0.2952	0.2697	0.4593	0.2419	0.3452	0.5255	0.2872	0.4702	0.3725	0.2031	0.4102	0.2597	0.3034	0.384	0.3425	0.2711	0.3889	0.2835	6.3369	1.4578	1.9593	7	221	-0.709276562489829	0	1
"222"	7	19	4	1	2.86	1	2	-1	0	0.561	-2.1345	-4.1718	3.9822	9.1519	-3.7244	4.9139	8.46	0.6841	5.137	10.7926	0.0189	0.14	-4.3709	7.624	12.1059	1.5376	-2.5195	1.347	3.15	4.6821	0.333	0.333	0.333	0.333	0.333	0.333	0.333	0.333	0.333	0.333	0.333	0.333	0.333	0.333	0.333	0.333	0.333	0.333	0.333	6.327	1.7195	2.2788	7	222	-0.578034373459441	0	1
"223"	7	48	4	2	5.72	1	7	1	1	2.215	7.1925	-6.0496	5.7467	11.1615	9.7729	4.7799	5.7607	7.3759	5.2243	-1.2903	1.0489	10.4324	1.7409	1.0211	2.3032	12.2898	10.5125	3.943	7.8277	12.8532	0.333	0.333	0.333	0.333	0.333	0.333	0.333	0.333	0.333	0.333	0.333	0.333	0.333	0.333	0.333	0.333	0.333	0.333	0.333	6.327	1.7328	3.9493	7	223	0.795252403497099	1	0
"224"	7	44	4	-2	-5.72	1	7	-1	1	2.114	-4.6466	-0.4987	2.805	-1.9076	-17.2433	-5.8311	-6.1328	-11.4182	-4.1618	-10.9534	-6.7909	-8.104	-10.4729	-8.5331	0.0823	-5.1649	-2.6951	0.8861	-2.2601	-10.9759	0.333	0.333	0.333	0.333	0.333	0.333	0.333	0.333	0.333	0.333	0.333	0.333	0.333	0.333	0.333	0.333	0.333	0.333	0.333	6.327	1.4588	3.5817	7	224	0.748581887448046	0	1
"225"	7	9	4	-2	-5.72	0	2	-1	1	0.563	-10.6992	-2.0957	0.406	-7.6716	-1.2952	-0.5506	-7.0579	3.5014	-5.6294	-11.6479	-5.0226	-15.8663	-2.6713	1.3009	-6.313	-7.7283	-7.4464	-6.4677	-6.3138	-14.1238	0.4648	0.2034	0.3935	0.2081	0.2872	0.2184	0.2656	0.427	0.508	0.4325	0.236	0.4065	0.2852	0.2174	0.3618	0.2715	0.4724	0.3477	0.3116	6.3188	1.4014	1.9798	7	225	-0.574475650842447	0	1
"226"	7	26	4	1	2.86	0	3	-1	0	0.878	0.1229	-6.9708	3.119	4.2661	4.7324	12.0063	5.0151	5.4866	7.5164	-0.1738	-2.5394	-2.6774	6.9692	-2.0663	11.3049	-0.6854	3.616	-3.3719	6.7376	6.4837	0.3861	0.3503	0.3821	0.2916	0.4326	0.2526	0.2139	0.2551	0.4122	0.504	0.3148	0.2503	0.2961	0.4306	0.3576	0.2851	0.2018	0.461	0.2405	6.3185	1.5961	2.4949	7	226	-0.13010868534702	0	1
"227"	7	59	4	-1	-2.86	1	7	-1	1	2.15	-0.8688	-0.1995	8.5485	2.9678	-1.1535	-5.7589	-4.8962	-4.5274	-0.4857	-2.5901	-8.3076	-4.7582	-12.1339	-7.568	1.8715	-5.346	0.4386	-2.884	-11.325	2.3075	0.333	0.333	0.333	0.333	0.333	0.333	0.333	0.333	0.333	0.333	0.333	0.333	0.333	0.333	0.333	0.333	0.333	0.333	0.333	6.327	1.5232	3.6843	7	227	0.765467842139571	0	1
"228"	7	8	4	-4	-11.44	0	2	-1	1	0.546	-6.5461	-19.6142	-11.7455	-15.6025	-13.0132	-13.8668	-5.9991	-8.8822	-11.6898	-12.955	-1.8002	-13.4189	-9.6966	-18.9162	-16.1387	-4.6914	-8.7876	-11.3046	-5.5193	-18.2642	0.3864	0.2572	0.2077	0.4681	0.313	0.2579	0.4593	0.3608	0.3955	0.4414	0.3744	0.2927	0.3769	0.3274	0.2735	0.2048	0.3821	0.3009	0.2467	6.327	1.6411	2.197	7	228	-0.605136303237232	0	1
"229"	7	67	4	0	0	0	11	1	1	3.954	-0.6706	3.0734	-6.8256	-0.0125	-6.9675	7.246	4.7998	-8.9632	0.3242	0.7031	-0.8104	7.8002	8.5914	1.3628	-0.2883	0.1301	0.792	-5.4344	-6.4451	1.0249	0.452	0.4955	0.3521	0.4904	0.4287	0.2425	0.3452	0.2504	0.4174	0.2276	0.3259	0.3512	0.2617	0.3352	0.2143	0.2466	0.4307	0.2069	0.2623	6.3365	1.6129	5.5714	7	229	1.37472772474843	1	0
"230"	7	53	4	0	0	0	18	1	1	5.952	4.8614	1.4338	-10.1789	0.2772	3.6415	-0.4299	-8.362	5.4937	1.3851	-7.6642	-2.1589	4.8625	4.4105	-0.6555	-4.1205	1.9901	2.0567	8.6874	-5.6603	0.5367	0.3403	0.3907	0.2837	0.3525	0.4895	0.2455	0.3377	0.5102	0.4564	0.2252	0.33	0.214	0.261	0.3988	0.3057	0.3829	0.2855	0.2075	0.3049	6.322	1.5321	7.4856	7	230	1.78372729753079	1	0
"231"	7	51	4	-2	-5.72	0	5	-1	1	1.445	-2.171	-0.6136	-16.2883	-8.4448	-3.4793	-5.6278	4.2702	-4.7413	-3.5884	-0.7841	-8.667	-15.1763	-4.9482	-6.8872	-6.9474	-9.2127	-3.0508	-4.3016	-2.3759	-11.36	0.3722	0.2111	0.4266	0.3267	0.4765	0.399	0.2878	0.3604	0.3309	0.2544	0.4374	0.2027	0.2467	0.3827	0.3251	0.255	0.3917	0.2733	0.3733	6.3333	1.4353	2.8958	7	231	0.368109321564396	0	1
"232"	7	68	4	1	2.86	0	13	1	1	4.241	7.2903	5.4402	4.3305	2.1707	3.0843	6.7231	11.238	-0.1597	0.6316	5.22	-5.8177	4.7296	-4.5078	1.6951	5.9172	7.1802	10.7459	-6.5137	-1.0502	-0.1704	0.4749	0.2533	0.2216	0.4017	0.2116	0.4658	0.3382	0.3969	0.313	0.3434	0.4267	0.2124	0.3621	0.2703	0.4918	0.2084	0.4771	0.2556	0.2023	6.327	1.5284	5.7754	7	232	1.44479909049245	1	0
"233"	7	61	4	1	2.86	1	7	1	1	2.029	4.9753	-4.01	1.4457	8.2085	10.9776	2.2681	-4.3199	3.8875	9.7887	-1.7757	-4.3381	7.4429	4.2421	-2.4035	0.3657	5.8285	8.336	5.2394	-2.9175	4.1009	0.333	0.333	0.333	0.333	0.333	0.333	0.333	0.333	0.333	0.333	0.333	0.333	0.333	0.333	0.333	0.333	0.333	0.333	0.333	6.327	1.5512	3.5799	7	233	0.707543060843678	1	0
"234"	7	28	4	4	11.44	0	2	1	1	0.689	15.8853	19.5695	13.7448	5.5717	7.4785	21.3006	7.9769	2.7465	15.8335	5.9199	6.6098	7.7846	17.0182	12.7073	14.349	5.8261	11.2591	9.9014	11.8416	13.6442	0.3437	0.3758	0.2542	0.2105	0.3264	0.2379	0.3931	0.4387	0.2205	0.3237	0.5068	0.2807	0.2352	0.4945	0.3481	0.5231	0.2859	0.3191	0.2034	6.3213	1.6112	2.3064	7	234	-0.372514007968479	1	0
"235"	7	31	4	-1	-2.86	1	3	-1	1	0.825	-7.1383	-8.3806	-3.0302	0.3761	7.5459	-5.3853	-8.1171	-4.4401	0.6156	6.0825	-5.4657	0.9851	2.5173	-7.4921	-1.1934	-3.3344	-2.085	-7.3594	-1.6479	-11.6671	0.333	0.333	0.333	0.333	0.333	0.333	0.333	0.333	0.333	0.333	0.333	0.333	0.333	0.333	0.333	0.333	0.333	0.333	0.333	6.327	1.6823	2.5091	7	235	-0.192371892647456	0	1
"236"	7	29	4	-4	-11.44	1	2	-1	1	0.651	-14.5322	-8.9843	-14.0545	-6.6193	-6.4283	-17.3031	-12.3338	-9.5108	-22.7406	-17.8908	-12.2039	-19.3947	-4.3828	-5.5522	-5.3616	-9.7619	-10.4565	-9.8994	-10.8639	-10.7236	0.333	0.333	0.333	0.333	0.333	0.333	0.333	0.333	0.333	0.333	0.333	0.333	0.333	0.333	0.333	0.333	0.333	0.333	0.333	6.327	1.4952	2.1515	7	236	-0.429245636773568	0	1
"237"	7	17	4	-1	-2.86	1	6	-1	1	1.76	0.0503	-7.1717	-4.1927	-4.2693	-11.0813	-7.1461	-2.5763	-4.4238	4.7576	3.9902	3.2579	0.3865	-5.9319	-8.711	5.0351	1.2204	-5.381	1.6523	-7.16	-8.5344	0.333	0.333	0.333	0.333	0.333	0.333	0.333	0.333	0.333	0.333	0.333	0.333	0.333	0.333	0.333	0.333	0.333	0.333	0.333	6.327	1.5461	3.3105	7	237	0.56531380905006	0	1
"238"	7	15	4	-4	-11.44	1	3	-1	1	0.683	-6.7463	-19.4736	-9.8434	-15.973	-5.32	-13.4754	-9.8125	-11.8991	-13.6239	-9.8858	-16.2275	-8.4857	1.3223	-9.3734	-7.5594	-11.2491	-14.8613	-12.3569	-21.1456	-12.3456	0.333	0.333	0.333	0.333	0.333	0.333	0.333	0.333	0.333	0.333	0.333	0.333	0.333	0.333	0.333	0.333	0.333	0.333	0.333	6.327	1.4086	2.1003	7	238	-0.381260419411347	0	1
"239"	7	1	4	-4	-11.44	1	2	-1	1	0.515	-11.0283	-9.6222	-14.9397	-11.3763	-8.2042	-17.832	-6.4254	-6.1502	-10.3675	-13.9732	-5.8739	-17.3165	-9.6084	-9.247	-14.1782	-4.0141	-13.209	-5.3547	-23.0669	-17.5045	0.333	0.333	0.333	0.333	0.333	0.333	0.333	0.333	0.333	0.333	0.333	0.333	0.333	0.333	0.333	0.333	0.333	0.333	0.333	6.327	1.7198	2.2492	7	239	-0.663588378318401	0	1
"240"	7	14	4	4	11.44	0	3	1	1	0.969	15.5915	6.3812	10.3515	3.101	3.4595	16.6608	12.3342	10.9586	14.6206	5.4981	14.8749	6.7383	7.1577	19.1495	14.6747	18.0079	10.1458	14.4727	6.8827	16.2702	0.2927	0.2156	0.472	0.2587	0.299	0.2097	0.4563	0.2253	0.439	0.2743	0.485	0.3737	0.256	0.4076	0.3721	0.2743	0.3618	0.2737	0.3837	6.3303	1.5538	2.5366	7	240	-0.0314906670913709	1	0
"241"	7	45	4	-1	-2.86	1	9	1	0	2.727	-0.4357	-2.4985	-4.1831	-5.4994	-3.9608	-6.2503	-7.333	-1.7514	-5.1059	-3.3897	2.3415	0.8087	-2.5162	2.5207	-6.2788	1.2963	-1.0892	-18.5165	1.186	4.2953	0.333	0.333	0.333	0.333	0.333	0.333	0.333	0.333	0.333	0.333	0.333	0.333	0.333	0.333	0.333	0.333	0.333	0.333	0.333	6.327	1.6064	4.3441	7	241	1.00320210386345	1	0
"242"	7	46	4	0	0	1	11	-1	0	3.587	3.1591	-7.9608	0.5178	-1.6744	-2.8025	-2.7206	10.8087	1.8258	2.8317	2.8648	6.3544	8.1276	-9.5589	-3.673	-2.5248	-3.0133	2.068	-2.1256	-0.9947	-2.1833	0.333	0.333	0.333	0.333	0.333	0.333	0.333	0.333	0.333	0.333	0.333	0.333	0.333	0.333	0.333	0.333	0.333	0.333	0.333	6.327	1.5157	5.121	7	242	1.27731619855015	0	1
"243"	7	6	4	2	5.72	1	5	1	1	1.403	5.7344	0.0022	15.9312	-0.3755	7.1574	-1.1866	0.2854	10.0429	2.1601	12.9453	9.2666	5.7794	8.739	-1.6605	3.2421	7.4128	12.2537	6.0567	9.0607	2.1837	0.333	0.333	0.333	0.333	0.333	0.333	0.333	0.333	0.333	0.333	0.333	0.333	0.333	0.333	0.333	0.333	0.333	0.333	0.333	6.327	1.5653	2.97	7	243	0.338612801120324	1	0
"244"	7	70	4	4	11.44	0	3	1	1	0.706	11.3965	12.0919	4.8093	16.0715	13.8919	19.5035	2.9676	10.3934	9.6224	5.9444	11.0825	14.6874	2.5124	12.9624	13.2288	20.1948	13.8912	11.7799	5.669	14.2044	0.2542	0.3129	0.4421	0.484	0.2183	0.453	0.2091	0.3546	0.4579	0.3091	0.3343	0.2072	0.3012	0.2463	0.4448	0.4112	0.3032	0.2006	0.3918	6.3358	1.7063	2.4235	7	244	-0.348140041488895	1	0
"245"	7	50	4	-4	-11.44	0	5	-1	1	1.266	-14.7416	-10.0603	-1.865	-7.3174	-17.9706	-12.6512	-12.7858	-7.2955	-3.7887	-15.4659	-17.7318	-14.7449	-18.4372	-9.772	-9.0272	-12.8366	-12.2741	-13.9925	-14.9091	-1.5292	0.3082	0.2421	0.2061	0.4314	0.2906	0.2652	0.4942	0.245	0.2999	0.4866	0.3329	0.2858	0.3595	0.2818	0.3966	0.321	0.2415	0.3336	0.4997	6.3216	1.6262	2.9006	7	245	0.235862323721984	0	1
"246"	7	18	4	0	0	1	16	-1	1	5.176	-2.3536	-3.0168	-6.0714	10.0128	-2.3149	4.0775	4.5978	-8.2211	-4.1051	0.9145	-1.0147	5.6732	7.1467	-3.2751	4.2464	-3.4405	-1.6054	-6.5413	-0.2303	6.1564	0.333	0.333	0.333	0.333	0.333	0.333	0.333	0.333	0.333	0.333	0.333	0.333	0.333	0.333	0.333	0.333	0.333	0.333	0.333	6.327	1.4888	6.6769	7	246	1.6440325571986	0	1
"247"	7	36	4	-4	-11.44	0	2	-1	1	0.55	-11.7941	-6.3982	-21.0175	-11.0131	-11.9745	-8.4507	-13.6638	-13.2685	-9.1788	-3.5494	-14.373	-3.5517	-10.8981	-6.9741	-17.0996	-16.0373	-16.5698	-11.1199	-4.0866	-16.9256	0.4191	0.3021	0.2028	0.4644	0.405	0.2163	0.3358	0.2287	0.5168	0.4523	0.2294	0.2721	0.434	0.3415	0.2089	0.2993	0.2642	0.3928	0.3352	6.3206	1.731	2.2847	7	247	-0.59783700075562	0	1
"248"	7	35	4	4	11.44	1	3	1	1	0.807	9.7852	17.1649	13.2113	16.9023	9.6571	18.2759	3.6124	6.2558	3.6753	16.127	7.5014	16.7522	9.476	16.0999	5.8766	16.938	4.1696	14.4351	10.488	11.3037	0.333	0.333	0.333	0.333	0.333	0.333	0.333	0.333	0.333	0.333	0.333	0.333	0.333	0.333	0.333	0.333	0.333	0.333	0.333	6.327	1.6004	2.4083	7	248	-0.214431610712188	1	0
"249"	7	4	4	0	0	1	11	-1	1	3.594	1.9503	7.2928	-9.8237	-2.4835	5.2876	1.099	3.7614	0.1232	-3.014	2.1081	1.5426	-1.9261	-5.5047	4.4203	9.6807	-2.9414	2.0692	-2.4636	-4.4959	-8.0778	0.333	0.333	0.333	0.333	0.333	0.333	0.333	0.333	0.333	0.333	0.333	0.333	0.333	0.333	0.333	0.333	0.333	0.333	0.333	6.327	1.4982	5.0947	7	249	1.27926578836137	0	1
"250"	7	52	4	-1	-2.86	0	3	1	0	0.695	-0.6114	-0.4294	-5.3299	-5.5755	-1.3868	-0.5805	-3.4058	-2.8894	-10.7368	-1.6822	-4.3021	5.2144	-7.2534	-9.4682	-1.6145	7.4749	-11.8672	-1.4368	-4.791	5.3475	0.2411	0.3713	0.2868	0.2079	0.3846	0.4447	0.3516	0.2015	0.354	0.4277	0.4863	0.2005	0.3578	0.3864	0.4147	0.3657	0.2117	0.3293	0.3023	6.3259	1.5182	2.2125	7	250	-0.363843433417345	1	0
"251"	7	23	4	-2	-5.72	0	6	-1	1	1.855	-8.5188	-1.6312	-7.1338	-3.5946	-11.3929	-6.6601	-3.3869	0.501	-8.9012	7.2581	-8.0026	-3.3433	-7.0968	-2.2557	-3.8856	-5.4845	-17.4504	-6.112	-5.3761	-10.2541	0.2294	0.5077	0.4395	0.2766	0.3567	0.2797	0.2534	0.4801	0.2911	0.2383	0.5322	0.3068	0.2438	0.2952	0.3535	0.3268	0.4128	0.2185	0.2845	6.3266	1.6654	3.5393	7	251	0.617884696059398	0	1
"252"	7	13	4	2	5.72	0	5	1	1	1.629	3.9034	2.8539	8.4131	7.0414	6.8341	15.5444	6.751	8.1472	3.3141	5.6807	1.5842	2.4537	6.8748	1.7396	8.9914	8.0085	4.0445	2.1704	15.7898	-6.6631	0.2179	0.3099	0.499	0.2517	0.3979	0.2109	0.4899	0.376	0.2081	0.3188	0.4337	0.2126	0.4293	0.4727	0.3173	0.391	0.2486	0.3432	0.2028	6.3313	1.6268	3.263	7	252	0.487966329619908	1	0
"253"	7	60	4	0	0	1	7	-1	0	2.109	-1.6078	-2.6894	8.773	2.3267	-5.6022	-3.5476	1.6452	5.7971	-4.0475	5.7087	1.1298	7.1089	-9.0378	-2.4671	-5.7593	2.2701	-3.1663	4.3675	-5.6944	4.4741	0.333	0.333	0.333	0.333	0.333	0.333	0.333	0.333	0.333	0.333	0.333	0.333	0.333	0.333	0.333	0.333	0.333	0.333	0.333	6.327	1.4877	3.6097	7	253	0.746213901496638	0	1
"254"	7	27	4	2	5.72	0	4	1	1	1.028	6.1532	4.6756	3.7599	2.7085	6.9731	4.1247	-2.1045	-0.675	6.1908	2.4239	13.9237	-1.154	6.4288	10.5949	10.4995	11.2381	1.9668	17.5949	5.738	1.7907	0.2333	0.3502	0.4407	0.4815	0.2896	0.3348	0.2	0.4779	0.2873	0.3709	0.2243	0.422	0.3152	0.3691	0.2412	0.3197	0.2626	0.4636	0.2436	6.3274	1.5132	2.5622	7	254	0.0276151670329734	1	0
"255"	7	55	4	2	5.72	0	5	1	1	1.815	2.6316	4.5142	-1.3086	10.6474	10.4814	7.2919	8.9837	12.5764	6.3439	5.079	-3.4781	11.5021	15.7741	-2.1316	5.4945	4.7428	3.6799	6.2725	0.7348	4.2488	0.5086	0.4173	0.2747	0.4504	0.2979	0.2125	0.3336	0.3702	0.2267	0.2712	0.2055	0.4614	0.205	0.2868	0.2459	0.4224	0.2752	0.3933	0.47	6.3287	1.6072	3.4321	7	255	0.596085467716814	1	0
"256"	7	47	4	1	2.86	1	8	-1	0	2.349	4.6078	1.6329	-2.4409	6.0282	-3.425	1.9931	2.5408	1.8678	6.061	-4.6047	6.9956	10.307	-4.6414	5.4064	5.9683	-0.693	13.5881	-2.2647	0.2051	6.5041	0.333	0.333	0.333	0.333	0.333	0.333	0.333	0.333	0.333	0.333	0.333	0.333	0.333	0.333	0.333	0.333	0.333	0.333	0.333	6.327	1.4391	3.7997	7	256	0.853989705676776	0	1
"257"	7	5	4	1	2.86	1	7	1	1	2.256	2.3206	6.2173	4.3847	6.1902	-3.1365	6.1746	6.5405	-4.9517	2.3041	-2.6678	7.1384	7.6632	1.2684	5.4815	4.3638	-10.9935	2.4122	8.9103	3.7275	5.3307	0.333	0.333	0.333	0.333	0.333	0.333	0.333	0.333	0.333	0.333	0.333	0.333	0.333	0.333	0.333	0.333	0.333	0.333	0.333	6.327	1.407	3.6732	7	257	0.813593333635812	1	0
"258"	7	33	4	1	2.86	1	3	1	1	0.751	-1.2233	13.1623	8.9656	8.4229	-8.2058	-0.3326	2.5842	1.8709	5.8675	2.6517	3.0995	2.8439	-2.1622	4.1279	8.3522	-3.6352	2.9374	4.476	-1.4	6.4028	0.333	0.333	0.333	0.333	0.333	0.333	0.333	0.333	0.333	0.333	0.333	0.333	0.333	0.333	0.333	0.333	0.333	0.333	0.333	6.327	1.4173	2.1687	7	258	-0.286349627218002	1	0
"259"	7	65	4	-2	-5.72	0	2	-1	1	0.593	-9.6263	-5.4607	4.9924	-12.3196	-3.717	-8.8287	-4.1757	-4.8018	3.5153	-8.5395	-13.5332	-4.7457	-10.7981	-8.103	-3.5664	1.4621	-11.2042	-6.5885	-6.4088	-1.44	0.2511	0.4025	0.2556	0.4259	0.2338	0.3175	0.2663	0.3493	0.2539	0.4553	0.3948	0.3597	0.4363	0.2445	0.2038	0.4957	0.2342	0.4392	0.3115	6.3308	1.6987	2.2937	7	259	-0.522560879984412	0	1
"260"	7	43	4	-4	-11.44	1	2	-1	1	0.453	-13.3156	-1.7699	-15.0992	-13.3001	-13.9869	-14.4396	-7.0604	-15.4136	-12.3086	-8.4809	-11.3466	-5.9904	-16.8915	-18.7568	-16.2799	-3.1766	-8.5061	-12.3854	-15.9727	-2.8814	0.333	0.333	0.333	0.333	0.333	0.333	0.333	0.333	0.333	0.333	0.333	0.333	0.333	0.333	0.333	0.333	0.333	0.333	0.333	6.327	1.4585	1.9203	7	260	-0.791863153499103	0	1
"261"	7	66	4	-1	-2.86	0	4	-1	1	1.252	-0.126	-2.7507	-3.1682	-11.6416	-3.2326	-0.1734	-0.4759	-5.5467	-12.1707	-0.9553	-4.2257	6.7367	-9.5089	-3.7573	8.0536	-3.2382	-1.5518	-7.5953	-0.6563	-1.6779	0.2719	0.3311	0.4887	0.2287	0.378	0.2591	0.4948	0.2911	0.4133	0.3271	0.2933	0.3797	0.3403	0.303	0.4575	0.2827	0.2229	0.3597	0.2075	6.3305	1.7262	2.9864	7	261	0.224742272677907	0	1
"262"	7	34	4	2	5.72	1	8	1	1	2.389	8.9477	-0.2984	9.252	13.8343	-5.5301	6.992	9.1957	6.6626	3.4954	6.5895	-2.9093	12.426	13.8416	4.3439	4.917	6.7675	7.7126	2.347	2.1321	4.8682	0.333	0.333	0.333	0.333	0.333	0.333	0.333	0.333	0.333	0.333	0.333	0.333	0.333	0.333	0.333	0.333	0.333	0.333	0.333	6.327	1.4877	3.873	7	262	0.870874868343672	1	0
"263"	7	16	4	-2	-5.72	1	4	-1	1	1.031	-9.7074	-10.5785	-9.2865	-10.7736	0.8279	-7.268	-2.8258	-2.3666	-5.2531	-7.4557	1.8788	-13.399	-4.7717	5.2039	-5.9022	-4.4698	-10.2815	-3.6053	-2.1814	-12.4244	0.333	0.333	0.333	0.333	0.333	0.333	0.333	0.333	0.333	0.333	0.333	0.333	0.333	0.333	0.333	0.333	0.333	0.333	0.333	6.327	1.4249	2.4647	7	263	0.0305292050348228	0	1
"264"	7	7	4	4	11.44	1	3	1	1	0.684	14.746	19.213	12.1996	4.3873	9.8651	9.1906	14.5815	23.3326	8.0975	10.4167	13.7491	12.9277	2.1486	11.2305	13.4731	4.6509	13.5735	6.9313	11.495	13.252	0.333	0.333	0.333	0.333	0.333	0.333	0.333	0.333	0.333	0.333	0.333	0.333	0.333	0.333	0.333	0.333	0.333	0.333	0.333	6.327	1.5945	2.2848	7	264	-0.379797361359587	1	0
"265"	7	37	4	-2	-5.72	0	3	-1	1	0.811	-1.9692	-7.7344	-2.6888	-12.1111	-2.2022	-11.2923	-7.3561	-6.3135	-10.0157	-10.6359	1.8711	-4.5629	2.2382	-6.8808	-4.8038	-9.6006	-7.7773	6.55	-5.8689	-11.4112	0.284	0.4145	0.2214	0.4606	0.363	0.4713	0.2209	0.3072	0.2028	0.4499	0.3143	0.2153	0.2426	0.3563	0.382	0.25	0.5287	0.4216	0.2282	6.3345	1.6479	2.4622	7	265	-0.209487224866724	0	1
"266"	7	38	4	-1	-2.86	0	3	-1	1	1.007	-7.0673	-13.6764	-6.2892	3.9571	-10.0352	-5.5576	0.8994	-1.546	-4.042	6.9875	1.1946	0.3461	-2.4301	-6.1559	-4.5982	-6.6654	-0.4619	1.2193	0.6371	-5.8849	0.484	0.2341	0.3281	0.4314	0.201	0.3349	0.219	0.4324	0.3018	0.3836	0.4279	0.264	0.2924	0.3948	0.4379	0.2021	0.4777	0.2261	0.263	6.3363	1.487	2.5082	7	266	0.00697561373642514	0	1
"267"	7	30	4	-2	-5.72	1	5	-1	1	1.599	-9.3015	0.4871	1.8322	-9.6584	-3.3268	-13.6959	-5.4001	-6.8239	-13.5112	-7.4467	-2.4636	2.008	-3.5374	3.2242	-6.9311	-11.1214	-6.6057	-5.8468	-10.743	-5.5659	0.333	0.333	0.333	0.333	0.333	0.333	0.333	0.333	0.333	0.333	0.333	0.333	0.333	0.333	0.333	0.333	0.333	0.333	0.333	6.327	1.4531	3.0663	7	267	0.469378433851817	0	1
"268"	7	40	4	1	2.86	0	5	1	1	1.373	2.7427	3.1922	6.2821	12.0341	9.5434	4.6875	-0.2119	-2.2231	4.471	-4.1112	-4.7956	5.0668	3.095	8.4784	-0.6528	-2.4954	12.4982	1.5801	-2.0997	0.3923	0.325	0.2582	0.3996	0.2125	0.3583	0.4307	0.3181	0.4709	0.2261	0.5263	0.3756	0.4081	0.3436	0.2458	0.3123	0.2227	0.3864	0.2132	0.2898	6.3236	1.5129	2.9073	7	268	0.316998126785834	1	0
"269"	7	54	4	1	2.86	0	13	-1	0	4.322	-1.0906	5.6273	6.2912	-2.3678	-0.0749	-1.0535	6.4933	-3.8852	-4.256	0.8167	-2.4335	2.9304	2.9062	7.9669	-1.2291	11.4252	2.9958	7.7511	11.3478	7.3686	0.3671	0.493	0.3155	0.2177	0.295	0.3503	0.4079	0.3781	0.2907	0.3583	0.2189	0.4356	0.2024	0.2612	0.2963	0.3361	0.423	0.2165	0.4688	6.3322	1.6554	5.9894	7	269	1.46371825808469	0	1
"270"	7	12	4	1	2.86	0	12	1	1	3.779	5.6224	-2.8562	0.7124	2.9253	9.3723	7.5327	4.9325	7.637	-4.02	5.3187	-4.9494	9.8014	9.8891	3.8097	-1.4946	1.1997	-1.6373	-5.9685	3.5858	6.0528	0.2518	0.2886	0.4396	0.3863	0.2176	0.2559	0.4746	0.3434	0.5214	0.2035	0.2326	0.3298	0.2107	0.3442	0.264	0.3874	0.5263	0.4301	0.2287	6.3365	1.7039	5.4964	7	270	1.32945942436735	1	0
"271"	7	58	4	-2	-5.72	1	7	-1	1	2.12	-5.1074	-0.8746	1.6884	-7.9634	-12.7024	-7.3081	-2.5492	-9.9473	-14.1757	2.1089	-8.7349	-11.2286	-5.7383	-2.4297	-13.6886	-3.2776	-7.0983	-3.9699	-2.9958	0.0419	0.333	0.333	0.333	0.333	0.333	0.333	0.333	0.333	0.333	0.333	0.333	0.333	0.333	0.333	0.333	0.333	0.333	0.333	0.333	6.327	1.5861	3.7204	7	271	0.751416088683921	0	1
"272"	7	2	4	-2	-5.72	1	6	-1	1	1.832	-3.7555	-5.5722	-7.1627	-15.7746	-3.1142	-3.5018	-1.0295	-12.6522	-1.1224	-8.4554	-5.4205	-5.6672	-8.4206	-1.2415	-9.898	-0.8465	-8.891	5.7984	-5.09	-12.8223	0.333	0.333	0.333	0.333	0.333	0.333	0.333	0.333	0.333	0.333	0.333	0.333	0.333	0.333	0.333	0.333	0.333	0.333	0.333	6.327	1.5926	3.4327	7	272	0.605408266251939	0	1
"273"	7	21	4	4	11.44	1	10	1	1	3.115	8.4492	20.031	10.1682	8.5182	10.4735	9.8211	10.633	19.359	11.2118	7.1058	12.7312	10.9587	13.0216	12.4533	11.5954	21.8126	7.4366	-0.8107	14.1854	10.6513	0.333	0.333	0.333	0.333	0.333	0.333	0.333	0.333	0.333	0.333	0.333	0.333	0.333	0.333	0.333	0.333	0.333	0.333	0.333	6.327	1.7103	4.833	7	273	1.13622915223942	1	0
"274"	7	11	4	0	0	0	12	-1	0	3.629	-0.6483	-2.1714	3.4368	3.199	7.6079	0.589	6.5283	0.6773	0.8735	1.3751	1.0081	-2.4072	-0.5225	-7.4828	-0.5722	-7.0012	5.346	-2.0038	4.9565	-13.5487	0.3055	0.2122	0.4751	0.5284	0.3608	0.2342	0.2743	0.2438	0.4183	0.2358	0.2069	0.3073	0.2057	0.368	0.2831	0.5117	0.4659	0.2323	0.4543	6.3237	1.5804	5.2129	7	274	1.28895712823093	0	1
"275"	7	64	4	-4	-11.44	0	5	-1	1	1.135	-10.2783	-7.6888	-2.3663	-12.1165	-10.9125	-4.266	-3.8274	-9.0686	-14.3583	-12.595	-13.4098	-13.4332	-19.3683	-17.9133	-14.1973	-7.52	-21.3582	-12.6145	-13.0442	-9.1998	0.3815	0.277	0.2014	0.2302	0.3106	0.2582	0.5017	0.4235	0.2057	0.3397	0.4895	0.4203	0.2611	0.3461	0.4766	0.2636	0.4274	0.2814	0.2317	6.3274	1.4281	2.569	7	275	0.126632650933366	0	1
"276"	7	10	4	-1	-2.86	0	8	-1	1	2.358	0.5663	-8.4409	7.3222	-3.9157	-10.3019	-4.573	-5.2882	3.5238	-3.45	-6.3939	-2.0579	-3.233	-8.0681	-7.2004	1.7828	-2.324	-3.1123	5.7847	-0.4212	-9.3236	0.3391	0.376	0.2001	0.2927	0.3953	0.2815	0.455	0.2689	0.5292	0.4384	0.5195	0.2819	0.2461	0.3268	0.2942	0.2006	0.4125	0.2606	0.1999	6.3181	1.6989	4.059	7	276	0.857813802115179	0	1
"277"	7	62	4	2	5.72	1	5	1	1	1.396	9.682	0.7027	1.8742	15.7508	9.1011	1.9305	10.7143	3.0527	7.4497	4.0131	4.031	-0.9592	7.9437	8.5725	0.1186	5.4697	-1.1982	13.1482	12.2664	2.7126	0.333	0.333	0.333	0.333	0.333	0.333	0.333	0.333	0.333	0.333	0.333	0.333	0.333	0.333	0.333	0.333	0.333	0.333	0.333	6.327	1.536	2.9303	7	277	0.333611004340181	1	0
"278"	7	63	4	4	11.44	1	7	1	1	2.211	6.6579	8.9582	12.514	13.407	23.9594	14.3536	5.8643	10.5611	14.4257	6.5344	11.416	11.7561	11.0913	8.6941	14.4597	12.8447	17.2341	15.2993	6.7794	0.0305	0.333	0.333	0.333	0.333	0.333	0.333	0.333	0.333	0.333	0.333	0.333	0.333	0.333	0.333	0.333	0.333	0.333	0.333	0.333	6.327	1.6577	3.879	7	278	0.793444901875309	1	0
