"subNo"	"index"	"block"	"level"	"mean"	"periodicity"	"nEvents"	"answer"	"isCorrect"	"rt"	"s1"	"s2"	"s3"	"s4"	"s5"	"s6"	"s7"	"s8"	"s9"	"s10"	"s11"	"s12"	"s13"	"s14"	"s15"	"s16"	"s17"	"s18"	"s19"	"s20"	"t1"	"t2"	"t3"	"t4"	"t5"	"t6"	"t7"	"t8"	"t9"	"t10"	"t11"	"t12"	"t13"	"t14"	"t15"	"t16"	"t17"	"t18"	"t19"	"seqDuration"	"startInterval"	"trialDuration"	"pID"	"Trial"	"rtLog"	"right"	"left"
"1"	17	55	1	2	2	0	9	1	1	2.712	2.8384	0.8179	10.0226	-5.581	7.8383	2.4367	-2.7342	9.6318	-4.6992	4.4634	1.1403	-3.3573	6.1189	-4.165	-0.1922	3.9419	-0.5135	3.1377	9.2854	-2.0198	0.2439	0.4756	0.2583	0.3693	0.2945	0.4388	0.3031	0.2694	0.3172	0.4337	0.3301	0.2475	0.415	0.2986	0.4479	0.3332	0.2895	0.3486	0.2212	6.3354	1.577	4.2962	17	1	0.997686370078149	1	0
"2"	17	69	1	2	2	0	8	1	1	2.404	1.42	3.4509	2.4725	2.6738	8.2616	-1.7364	8.7459	11.4051	-11.5961	-3.1812	3.4392	2.2747	2.2661	1.4468	-4.0738	-1.4305	3.7292	1.3983	6.486	1.0595	0.2762	0.3212	0.2231	0.4228	0.2723	0.3203	0.5132	0.4634	0.2996	0.4868	0.2216	0.3719	0.2582	0.3265	0.3977	0.2016	0.3924	0.3264	0.2258	6.3208	1.6918	4.1048	17	2	0.877134016672961	1	0
"3"	17	60	1	0	0	1	8	1	0	2.368	-1.412	4.6192	-8.885	-1.3904	-0.7047	7.1674	4.3534	-9.0209	6.3599	-7.4747	6.264	-4.5005	1.8077	-0.9941	2.1042	-2.6357	-0.0958	1.9653	-4.1226	6.2523	0.333	0.333	0.333	0.333	0.333	0.333	0.333	0.333	0.333	0.333	0.333	0.333	0.333	0.333	0.333	0.333	0.333	0.333	0.333	6.327	1.5458	3.9358	17	3	0.862045717021759	1	0
"4"	17	41	1	2	2	0	13	1	1	4.231	-2.4338	9.217	7.9158	2.4691	-1.9036	-7.9392	-0.3664	5.4924	7.0723	5.3952	0.5677	11.0193	-1.648	2.0228	7.6556	2.232	-2.767	-3.4576	3.9904	-3.1966	0.2063	0.3037	0.273	0.308	0.4419	0.334	0.2669	0.4875	0.2867	0.4682	0.2695	0.4037	0.4529	0.2419	0.2102	0.4574	0.2728	0.3411	0.2958	6.3215	1.6034	5.8489	17	4	1.44243837173793	1	0
"5"	17	22	1	-4	-4	0	11	-1	1	3.293	-4.84	-11.4578	-1.0378	-11.5292	3.929	-5.9892	0.2473	-3.4465	-3.2547	0.1777	0.2443	3.1144	-5.8802	-5.544	-3.1642	-6.7431	4.3562	-6.3046	-8.355	-13.2853	0.2638	0.5306	0.4396	0.3142	0.2438	0.2008	0.2694	0.2001	0.261	0.5026	0.289	0.236	0.3683	0.5016	0.2136	0.3147	0.4921	0.3586	0.3183	6.3181	1.6737	4.9767	17	5	1.19179900339423	0	1
"6"	17	2	1	-2	-2	1	10	-1	1	3.284	-3.2737	5.1122	-8.4925	2.1536	-4.9864	-4.0596	-4.1306	-4.483	-0.3468	-1.5299	0.7028	-1.5613	-1.2712	-6.9373	-1.3614	-12.9366	8.2307	-0.8498	5.0867	-6.556	0.333	0.333	0.333	0.333	0.333	0.333	0.333	0.333	0.333	0.333	0.333	0.333	0.333	0.333	0.333	0.333	0.333	0.333	0.333	6.327	1.5558	4.8513	17	6	1.18906219159018	0	1
"7"	17	64	1	-4	-4	0	11	-1	1	3.321	-6.5296	-0.2199	-6.4879	-4.7957	-0.2749	-8.2145	4.9408	-8.2801	-11.6106	-5.9253	-1.1897	-16.3128	-2.4344	4.825	-3.4757	-2.1526	-6.2966	-1.5708	0.2666	-3.9338	0.299	0.5091	0.2498	0.2009	0.3044	0.4446	0.3256	0.2546	0.3988	0.2527	0.2146	0.2485	0.3999	0.4405	0.5216	0.3639	0.4679	0.2005	0.2359	6.3328	1.4583	4.7889	17	7	1.20026594239461	0	1
"8"	17	65	1	-2	-2	0	9	-1	1	2.983	-0.9421	-0.9183	-3.0834	10.1544	1.4726	-5.5974	2.8138	-5.5147	-7.7661	-0.7091	-5.6744	-4.1136	-0.513	-2.583	2.1549	-1.5667	2.3207	-14.3441	-2.9908	-1.0836	0.2027	0.4078	0.364	0.4935	0.305	0.2328	0.3762	0.5252	0.2003	0.273	0.3716	0.2053	0.2795	0.4737	0.2246	0.4405	0.2257	0.4257	0.2978	6.325	1.6368	4.6336	17	8	1.09292950553261	0	1
"9"	17	25	1	0	0	0	5	1	1	1.484	3.0219	6.4528	-0.3978	-2.2434	-3.0254	6.2636	-2.2265	-3.6273	-1.999	0.8351	-1.2969	8.9937	-2.8933	-10.8538	-2.5803	1.1871	-6.9529	-3.1226	5.0232	8.0835	0.2901	0.2259	0.321	0.3749	0.3224	0.2885	0.4726	0.3609	0.3091	0.2614	0.4693	0.2219	0.3375	0.2564	0.3725	0.4086	0.2534	0.5118	0.2604	6.3187	1.5558	3.0517	17	9	0.394741144745189	1	0
"10"	17	53	1	0	0	0	8	1	0	2.322	-3.1452	3.4238	-1.1615	7.7019	8.4241	2.0956	-5.8828	-10.3796	-6.6212	0.0503	-1.8409	3.3374	-1.5521	-4.4685	-2.3901	1.5193	7.2872	3.1446	1.3304	-2.3337	0.2732	0.2263	0.3387	0.4044	0.4343	0.3313	0.2048	0.4454	0.2653	0.3353	0.2425	0.3978	0.4947	0.2683	0.5044	0.2379	0.2027	0.4508	0.2683	6.3263	1.454	3.7728	17	10	0.8424288832757	1	0
"11"	17	48	1	2	2	1	10	1	1	3.264	3.4077	7.3075	-1.0351	9.9781	13.2548	-0.4914	2.1729	2.6086	0.0566	-4.3001	1.087	3.7538	-7.2781	-0.8145	5.815	-0.0322	-1.1155	6.3637	-3.7042	2.6532	0.333	0.333	0.333	0.333	0.333	0.333	0.333	0.333	0.333	0.333	0.333	0.333	0.333	0.333	0.333	0.333	0.333	0.333	0.333	6.327	1.7168	4.9815	17	11	1.18295343710186	1	0
"12"	17	10	1	-1	-1	0	12	-1	1	3.355	-3.5743	2.1153	-3.2808	-1.7809	-7.1028	-0.9481	7.3271	-10.4753	4.578	2.9497	-0.1449	-8.426	-2.5383	-3.2319	-3.2306	7.4134	-2.9496	0.4618	7.3457	-4.7238	0.3284	0.2729	0.4264	0.308	0.2087	0.3082	0.2296	0.2704	0.3607	0.2225	0.3535	0.4347	0.5182	0.2319	0.4515	0.4184	0.3409	0.2912	0.358	6.3341	1.5659	4.9389	17	12	1.21045177042365	0	1
"13"	17	6	1	2	2	1	7	1	1	2.292	-0.3272	2.7813	-5.6985	-0.4414	-3.1374	-5.9964	5.3109	2.3792	-4.1041	10.0153	4.976	-5.7729	6.405	9.3761	1.6565	7.008	4.3406	-0.5135	3.1681	6.995	0.333	0.333	0.333	0.333	0.333	0.333	0.333	0.333	0.333	0.333	0.333	0.333	0.333	0.333	0.333	0.333	0.333	0.333	0.333	6.327	1.5692	3.8762	17	13	0.829424798852493	1	0
"14"	17	52	1	-1	-1	0	12	-1	1	3.697	-2.6495	2.6199	-3.6133	-10.7738	-2.079	2.8141	-12.3899	-0.5444	1.3939	-5.0927	6.5756	6.8081	-2.8765	3.6429	-4.159	2.6767	0.1363	-4.5651	0.6698	1.3635	0.4086	0.2539	0.3912	0.3362	0.4271	0.3825	0.2098	0.2996	0.4631	0.2928	0.2074	0.2351	0.4114	0.2387	0.5292	0.2834	0.2356	0.3485	0.3814	6.3357	1.4819	5.1975	17	14	1.30752167995449	0	1
"15"	17	32	1	0	0	1	13	1	1	4.031	-0.0236	-4.7013	12.2734	5.0653	6.9848	-5.7157	-2.7473	3.0765	-3.8238	-1.2448	-4.099	1.0275	-7.4462	-6.367	4.8855	1.0514	-1.5255	0.8639	0.0392	4.3164	0.333	0.333	0.333	0.333	0.333	0.333	0.333	0.333	0.333	0.333	0.333	0.333	0.333	0.333	0.333	0.333	0.333	0.333	0.333	6.327	1.7102	5.7485	17	15	1.39401448413503	1	0
"16"	17	16	1	-2	-2	1	10	-1	1	3.25	-2.2467	7.1725	-2.877	-3.2909	-1.6698	-2.5912	1.9846	-3.3564	-10.1744	-0.4195	2.0945	8.4118	-11.1161	0.8519	-6.7906	-7.2185	0.5006	-4.4859	-4.2933	-0.2959	0.333	0.333	0.333	0.333	0.333	0.333	0.333	0.333	0.333	0.333	0.333	0.333	0.333	0.333	0.333	0.333	0.333	0.333	0.333	6.327	1.5705	4.8342	17	16	1.17865499634165	0	1
"17"	17	24	1	-1	-1	0	7	1	0	2.533	-1.9665	-7.685	1.4632	3.0016	6.6545	1.8276	0.2979	3.5375	-7.2309	-6.9928	-5.2366	-5.0661	-1.6587	2.0833	0.9211	-3.0552	9.5292	-6.7041	3.1526	-5.125	0.4589	0.4933	0.5215	0.2867	0.4081	0.2471	0.3986	0.4985	0.2944	0.2288	0.2963	0.2627	0.2043	0.4274	0.2413	0.277	0.3476	0.2334	0.2059	6.332	1.5495	4.0841	17	17	0.929404371019538	1	0
"18"	17	66	1	-1	-1	0	10	1	0	3.124	3.4101	5.0684	-0.5213	4.5455	-10.5076	8.2637	-1.4305	1.7661	-5.1851	-4.9825	-5.2534	5.8963	1.0437	-3.5362	-4.3338	-5.0407	-6.5099	2.7028	-0.6028	-6.2242	0.2275	0.4419	0.377	0.279	0.4408	0.2678	0.3637	0.4226	0.2842	0.2369	0.4452	0.3458	0.2204	0.3903	0.264	0.2009	0.3651	0.4927	0.2583	6.324	1.4992	4.625	17	18	1.13911423197744	1	0
"19"	17	42	1	4	4	0	7	1	1	2.118	4.1016	2.2572	0.4089	9.9006	3.4378	3.9755	9.6969	-0.0832	9.8409	14.8758	-4.703	0.1075	2.7839	4.2365	10.4214	1.959	1.9097	4.3994	4.4692	-3.8862	0.2408	0.3288	0.4577	0.2479	0.4329	0.2413	0.2786	0.377	0.3301	0.2045	0.2589	0.4872	0.3814	0.4418	0.379	0.46	0.2167	0.2506	0.3037	6.3189	1.5349	3.6526	17	19	0.750472247179215	1	0
"20"	17	8	1	-4	-4	0	9	-1	1	2.495	-6.9901	-1.0697	-2.1319	-0.8042	-12.0615	0.2359	0.723	-2.3475	-5.7514	-4.9369	-2.7498	-7.4821	0.9886	-12.5734	-1.9123	1.6009	0.3065	-8.5017	1.4608	-14.4165	0.2543	0.4604	0.2488	0.367	0.2265	0.2714	0.2333	0.272	0.3748	0.3481	0.4004	0.5233	0.2393	0.2936	0.2578	0.5307	0.4027	0.2888	0.3403	6.3336	1.7032	4.1959	17	20	0.914288729203482	0	1
"21"	17	50	1	-4	-4	0	14	-1	1	4.369	-6.2022	-9.5341	-3.9314	-0.0097	-11.0479	3.4561	-4.0412	-4.2742	6.0623	1.5323	-14.3281	-6.2048	-1.3982	-3.6288	-2.5269	-2.357	-10.2463	-0.5142	-6.1741	-2.8588	0.3966	0.2576	0.3895	0.2219	0.4781	0.4114	0.3808	0.2405	0.3186	0.3973	0.2988	0.245	0.2775	0.2213	0.2744	0.4217	0.281	0.3663	0.4558	6.334	1.5759	5.9527	17	21	1.4745341499693	0	1
"22"	17	18	1	0	0	1	13	-1	1	4.121	3.4881	2.1138	3.1279	5.9752	-10.176	8.4003	-7.4919	6.5835	-1.1408	4.6313	-7.4532	1.3973	-2.0668	-2.0035	-7.4986	2.7198	0.3096	-1.1325	-0.7259	1.223	0.333	0.333	0.333	0.333	0.333	0.333	0.333	0.333	0.333	0.333	0.333	0.333	0.333	0.333	0.333	0.333	0.333	0.333	0.333	6.327	1.4758	5.6048	17	22	1.41609585235668	0	1
"23"	17	51	1	-2	-2	0	11	1	0	3.426	0.0302	0.7695	-5.687	6.7003	-2.1026	3.0347	-7.2652	3.2643	0.6911	-1.0252	-3.2717	-4.8892	-12.7074	5.2707	2.2362	-1.35	-7.232	-4.3653	-8.4501	-4.5689	0.4211	0.3452	0.2263	0.5192	0.223	0.4095	0.2505	0.2061	0.3817	0.2703	0.2215	0.3013	0.3322	0.4077	0.4425	0.4117	0.3253	0.2724	0.3612	6.3285	1.5296	4.9764	17	23	1.23139339990193	1	0
"24"	17	38	1	-1	-1	0	12	-1	1	3.719	-5.2516	8.3141	-3.4505	-4.6493	3.2284	-0.3055	-12.4962	-1.3369	-2.4985	-3.6718	2.224	-0.7302	5.9863	-5.896	-1.4151	-8.2811	5.6798	3.3449	0.646	-0.1674	0.4499	0.5218	0.2116	0.3698	0.2732	0.236	0.4729	0.2262	0.3688	0.2259	0.2574	0.3141	0.372	0.235	0.4033	0.2528	0.2121	0.5309	0.3996	6.3332	1.5488	5.2859	17	24	1.31345481494293	0	1
"25"	17	59	1	-1	-1	1	10	1	0	3.209	-2.4793	0.1518	-6.7137	-0.4335	-2.4314	0.8083	-7.3337	3.2763	1.5113	4.9294	0.9656	1.9352	-8.2962	3.7123	-3.8874	-14.0947	3.884	0.9995	3.0738	1.7629	0.333	0.333	0.333	0.333	0.333	0.333	0.333	0.333	0.333	0.333	0.333	0.333	0.333	0.333	0.333	0.333	0.333	0.333	0.333	6.327	1.6592	4.8762	17	25	1.16595936212772	1	0
"26"	17	35	1	4	4	1	6	1	1	1.854	4.3502	6.1206	8.5072	7.9117	16.0935	2.8025	-2.2463	5.1487	0.0414	2.4095	9.6385	6.7384	3.8278	2.6028	4.6875	-0.8342	-8.2222	2.1269	5.0882	2.2794	0.333	0.333	0.333	0.333	0.333	0.333	0.333	0.333	0.333	0.333	0.333	0.333	0.333	0.333	0.333	0.333	0.333	0.333	0.333	6.327	1.4679	3.3385	17	26	0.617345467143663	1	0
"27"	17	46	1	0	0	1	6	1	1	1.886	1.952	-6.6555	0.3777	-6.9873	0.4792	10.7264	-2.5966	-2.1965	1.213	-5.1161	-3.7418	4.1326	7.1014	0.0759	3.9269	4.4057	-7.3001	-5.9119	4.4772	0.7571	0.333	0.333	0.333	0.333	0.333	0.333	0.333	0.333	0.333	0.333	0.333	0.333	0.333	0.333	0.333	0.333	0.333	0.333	0.333	6.327	1.5284	3.4204	17	27	0.634458184211266	1	0
"28"	17	17	1	-1	-1	1	8	-1	1	2.496	-1.3377	4.6732	-1.1043	0.8216	-0.7294	-2.6429	1.8379	-5.434	-0.4912	-5.7585	8.7597	1.803	-1.8009	-7.4595	0.8175	-5.9949	-3.2277	10.5933	-5.5012	-7.962	0.333	0.333	0.333	0.333	0.333	0.333	0.333	0.333	0.333	0.333	0.333	0.333	0.333	0.333	0.333	0.333	0.333	0.333	0.333	6.327	1.464	3.9636	17	28	0.914689450507181	0	1
"29"	17	40	1	1	1	0	8	1	1	2.447	5.1297	5.9037	-1.1141	-3.5455	5.0769	6.2893	5.8821	4.4268	-10.8027	2.7908	8.9562	-1.456	-2.5763	-0.9526	-5.7368	3.8118	-3.1635	1.1784	2.1274	-2.134	0.2046	0.2718	0.3044	0.4248	0.2901	0.2005	0.2914	0.4661	0.4273	0.4006	0.2983	0.2166	0.4878	0.4028	0.3228	0.2804	0.4789	0.3249	0.2255	6.3195	1.5646	4.0144	17	29	0.894862784460535	1	0
"30"	17	23	1	-2	-2	0	12	1	0	3.79	2.3123	-3.6477	2.7222	-2.4928	-3.3041	-12.9092	-7.9835	-5.0896	-2.976	-0.3522	2.9076	-2.9464	2.1268	-3.605	-0.8051	1.9509	-9.7841	4.3483	5.341	-7.4373	0.2725	0.4512	0.267	0.4384	0.2153	0.3191	0.397	0.4813	0.2618	0.2192	0.3846	0.2179	0.4806	0.3078	0.4485	0.2705	0.3658	0.2771	0.2513	6.3272	1.4397	5.241	17	30	1.33236601909433	1	0
"31"	17	68	1	1	1	0	10	1	1	3.036	2.0248	1.125	8.0648	4.1026	3.2749	5.4	5.2235	-0.6396	-1.3646	-0.9358	-5.0715	0.3898	-7.2579	-2.7647	-0.8174	-6.4261	0.8466	14.4885	-0.9904	-0.5835	0.206	0.4317	0.2137	0.4524	0.2366	0.3175	0.2514	0.4905	0.3152	0.2323	0.425	0.3777	0.2207	0.4321	0.2013	0.451	0.3582	0.2993	0.4199	6.3324	1.5177	4.5536	17	31	1.11054085953338	1	0
"32"	17	19	1	1	1	1	13	1	1	4.278	1.5441	-7.3377	-1.9085	-0.2858	0.6868	7.1387	0.898	-0.2053	3.7219	3.5296	-2.0728	9.3565	10.5326	-5.9182	-2.1726	-3.0557	-5.3685	-1.3562	7.6097	2.8231	0.333	0.333	0.333	0.333	0.333	0.333	0.333	0.333	0.333	0.333	0.333	0.333	0.333	0.333	0.333	0.333	0.333	0.333	0.333	6.327	1.682	5.9621	17	32	1.45348561066021	1	0
"33"	17	7	1	4	4	1	11	1	1	3.359	3.7472	-2.51	6.661	-4.9923	9.8732	-1.1134	7.1043	9.7909	10.2545	-7.1503	3.1711	2.7308	4.1102	3.33	5.795	6.9735	6.3	9.9944	0.0449	7.1348	0.333	0.333	0.333	0.333	0.333	0.333	0.333	0.333	0.333	0.333	0.333	0.333	0.333	0.333	0.333	0.333	0.333	0.333	0.333	6.327	1.7288	5.1093	17	33	1.21164331063016	1	0
"34"	17	39	1	0	0	0	15	1	0	4.906	3.9946	-3.8812	3.2609	-0.6846	-5.8482	-5.2004	0.581	4.468	-4.7345	2.5763	-1.5531	0.6379	-8.4172	6.0268	-0.1587	-1.2095	5.8608	7.8493	4.0248	-9.4761	0.3283	0.4952	0.3826	0.2033	0.2821	0.4953	0.2074	0.4423	0.2262	0.3379	0.3029	0.2764	0.428	0.3621	0.3006	0.475	0.2764	0.3062	0.2067	6.3349	1.7285	6.657	17	34	1.5904589458363	1	0
"35"	17	45	1	-1	-1	1	13	-1	1	4.307	0.0047	-1.2669	3.9567	-5.4463	8.2934	-6.7463	-3.8618	4.3419	-7.1796	4.4886	-9.7768	-1.8604	0.3948	-2.5732	-5.6173	-3.9596	5.6027	4.9834	0.6219	-3.8272	0.333	0.333	0.333	0.333	0.333	0.333	0.333	0.333	0.333	0.333	0.333	0.333	0.333	0.333	0.333	0.333	0.333	0.333	0.333	6.327	1.696	6.008	17	35	1.46024160607197	0	1
"36"	17	26	1	1	1	0	9	1	1	2.929	4.7927	-1.4142	-4.2693	-4.205	2.2807	0.7171	11.8103	-2.2213	-5.5054	-6.1931	0.4004	3.6621	-3.6901	-0.2619	6.7208	4.4926	3.7437	-1.8309	11.2284	1.2211	0.4739	0.2358	0.4047	0.4494	0.2833	0.2424	0.306	0.2237	0.48	0.2337	0.3059	0.221	0.3127	0.4447	0.2153	0.3281	0.4645	0.4335	0.2593	6.3178	1.6881	4.6298	17	36	1.0746610678456	1	0
"37"	17	3	1	-1	-1	1	6	1	0	1.967	0.5914	5.1451	11.2194	4.7436	-3.7787	-7.181	-2.1701	-5.9055	1.8359	-6.8764	-6.0484	-1.0208	-4.1142	4.9686	2.8049	0.1728	-2.0625	-3.8544	0.262	-6.9714	0.333	0.333	0.333	0.333	0.333	0.333	0.333	0.333	0.333	0.333	0.333	0.333	0.333	0.333	0.333	0.333	0.333	0.333	0.333	6.327	1.5025	3.4844	17	37	0.676509539406922	1	0
"38"	17	11	1	0	0	0	9	-1	1	2.837	0.2403	3.1617	0.4402	-10.0788	-2.9279	8.2112	-6.2081	0.9185	5.5864	-2.4626	-0.6681	-5.1625	6.8223	-1.1876	9.441	1.2962	-1.3314	1.884	-6.6825	-1.4642	0.2825	0.2038	0.5212	0.4365	0.3386	0.2524	0.2869	0.2088	0.492	0.397	0.23	0.2861	0.497	0.2636	0.3126	0.3486	0.4075	0.2072	0.3481	6.3205	1.5253	4.3707	17	38	1.04274715582671	0	1
"39"	17	14	1	4	4	0	13	1	1	4.107	6.8217	2.7867	6.0673	3.0545	-8.875	-0.6595	-0.0077	6.1826	7.3742	4.8905	3.2488	1.2492	3.2927	6.6065	6.3695	14.791	10.3795	2.5985	-3.1138	8.0103	0.5065	0.4722	0.2862	0.3824	0.28	0.209	0.2907	0.3948	0.2004	0.25	0.2065	0.4768	0.3034	0.4689	0.2368	0.3742	0.4439	0.2443	0.2903	6.3172	1.6825	5.7916	17	39	1.41269283497442	1	0
"40"	17	15	1	-4	-4	1	16	-1	1	5.142	-1.0414	-0.7482	0.9599	-11.004	-5.385	-4.4159	-6.4264	4.1621	-5.057	-7.3768	-11.9807	-4.2072	0.7791	-3.482	-6.5416	-10.8838	0.5457	-11.7378	-1.2218	3.6128	0.333	0.333	0.333	0.333	0.333	0.333	0.333	0.333	0.333	0.333	0.333	0.333	0.333	0.333	0.333	0.333	0.333	0.333	0.333	6.327	1.6568	6.8097	17	40	1.6374421088437	0	1
"41"	17	70	1	4	4	0	14	1	1	4.162	2.3796	4.4614	6.2757	4.9579	-4.3109	13.109	2.0548	0.569	9.7307	-5.5809	-0.4239	8.2219	6.3881	8.1068	1.4065	11.5625	0.1443	2.2314	2.0111	7.3796	0.2522	0.2116	0.3811	0.2104	0.532	0.2006	0.3994	0.2814	0.3504	0.272	0.2058	0.2326	0.2761	0.3755	0.5058	0.3249	0.5265	0.4711	0.3273	6.3369	1.4721	5.6292	17	41	1.42599572797144	1	0
"42"	17	28	1	4	4	0	16	1	1	4.984	3.4487	3.7734	7.0155	0.7082	10.6598	-6.3115	3.7962	7.1565	4.0038	9.2676	10.5474	0.1689	-1.2473	3.6772	5.9371	-0.4449	-4.8735	10.6832	9.4434	3.1336	0.4934	0.2078	0.3801	0.345	0.4065	0.261	0.2319	0.273	0.4143	0.2397	0.2943	0.4937	0.2378	0.3608	0.2888	0.4786	0.2288	0.3214	0.3783	6.3353	1.6964	6.701	17	42	1.60623278148515	1	0
"43"	17	44	1	-2	-2	1	10	1	0	3.033	-3.4401	1.0064	4.48	-2.4403	2.2257	-5.4695	1.4033	9.9332	-2.7811	-9.6671	-7.6188	-7.513	1.292	-7.0075	-4.4569	1.1097	-3.2142	1.2773	-8.9389	-1.7379	0.333	0.333	0.333	0.333	0.333	0.333	0.333	0.333	0.333	0.333	0.333	0.333	0.333	0.333	0.333	0.333	0.333	0.333	0.333	6.327	1.4122	4.4673	17	43	1.10955222870644	1	0
"44"	17	37	1	-2	-2	0	15	-1	1	5.024	2.3303	0.2941	-5.6478	-6.3835	6.5394	-5.5423	3.0145	4.1271	-8.4475	-1.9551	-7.4649	-10.6841	-1.8432	-0.2674	5.5085	-8.4223	1.5059	0.2729	-0.5982	-4.7303	0.4688	0.2034	0.4643	0.3527	0.2747	0.3827	0.3378	0.3768	0.4655	0.2533	0.2807	0.4913	0.2011	0.2276	0.45	0.3447	0.2235	0.2523	0.2807	6.332	1.7216	6.7581	17	44	1.6142264291659	0	1
"45"	17	58	1	-2	-2	1	8	1	0	2.392	2.1394	6.9348	1.8591	-3.1395	0.379	-2.9455	4.6844	-7.0915	6.2365	-11.3433	-0.816	-7.0487	1.5183	-5.944	-2.5879	-1.4775	-8.3563	-1.8517	-4.7082	-5.1781	0.333	0.333	0.333	0.333	0.333	0.333	0.333	0.333	0.333	0.333	0.333	0.333	0.333	0.333	0.333	0.333	0.333	0.333	0.333	6.327	1.6328	4.0432	17	45	0.872129836088385	1	0
"46"	17	57	1	-4	-4	1	8	-1	1	2.652	-1.897	-0.5536	-10.267	-3.219	-4.2091	-15.1281	-2.2066	-3.2032	0.6816	1.7628	1.0565	2.4159	-5.1347	0.5972	1.1925	-8.0565	-8.4376	-11.8651	-7.6773	-7.0997	0.333	0.333	0.333	0.333	0.333	0.333	0.333	0.333	0.333	0.333	0.333	0.333	0.333	0.333	0.333	0.333	0.333	0.333	0.333	6.327	1.5461	4.2029	17	46	0.975314072323616	0	1
"47"	17	13	1	2	2	0	11	1	1	3.557	-1.597	1.9873	1.4075	-0.2381	1.8312	8.7223	-2.9087	-3.6139	4.9289	-1.0783	3.2783	2.4728	4.8555	7.1987	-6.39	-4.1727	10.6309	1.8947	-2.6035	12.4241	0.2924	0.2117	0.2767	0.444	0.2116	0.4991	0.4184	0.3136	0.4309	0.2379	0.2813	0.5179	0.2318	0.3685	0.3434	0.3815	0.2969	0.2349	0.3275	6.32	1.6059	5.1747	17	47	1.26891749296632	1	0
"48"	17	21	1	4	4	1	15	1	1	4.756	3.5313	1.7936	12.0857	-4.0238	3.3183	2.3886	8.8068	-2.2892	15.1665	-0.385	3.8478	3.4509	5.1301	1.0267	5.1451	8.1008	3.1367	-2.8149	10.2063	0.9901	0.333	0.333	0.333	0.333	0.333	0.333	0.333	0.333	0.333	0.333	0.333	0.333	0.333	0.333	0.333	0.333	0.333	0.333	0.333	6.327	1.4578	6.2235	17	48	1.55940697882854	1	0
"49"	17	62	1	2	2	1	15	1	1	4.792	0.8886	5.9482	2.1184	0.1337	9.2247	2.1045	9.0417	6.2746	2.4321	0.9866	0.97	10.2898	-2.694	0.7567	-9.9717	-0.6193	-5.4209	5.585	-0.2915	2.726	0.333	0.333	0.333	0.333	0.333	0.333	0.333	0.333	0.333	0.333	0.333	0.333	0.333	0.333	0.333	0.333	0.333	0.333	0.333	6.327	1.4634	6.2589	17	49	1.56694786081315	1	0
"50"	17	9	1	-2	-2	0	14	-1	1	4.442	-0.2321	0.9598	-2.9618	-1.5878	-0.2235	-2.2657	-7.9125	-5.3543	-0.3067	4.0634	-5.9447	-4.6465	-4.4937	-8.3154	2.7583	6.8531	0.1948	-0.5203	3.2436	-15.0066	0.2735	0.4936	0.2069	0.4308	0.2938	0.2225	0.3458	0.2513	0.5303	0.2799	0.308	0.2348	0.2957	0.3294	0.2595	0.3306	0.4189	0.3754	0.4498	6.3305	1.6811	6.1264	17	50	1.49110472547224	0	1
"51"	17	54	1	1	1	0	6	1	1	1.755	-0.4332	5.0431	7.5409	3.4376	-5.4451	4.4868	4.789	0.9799	2.9927	-2.7804	-2.4989	-3.0539	-8.7458	5.3056	8.4765	8.9813	0.641	0.2387	-5.4389	-3.5781	0.2146	0.2876	0.4563	0.4104	0.313	0.4957	0.3388	0.3717	0.2655	0.4221	0.2606	0.4489	0.3249	0.2117	0.2421	0.4829	0.2368	0.2893	0.2506	6.3235	1.4639	3.2385	17	51	0.562468856917829	1	0
"52"	17	27	1	2	2	0	10	1	1	3.433	-2.9014	-1.4461	0.4997	13.9647	2.5295	-2.3836	8.5182	2.8697	7.6092	3.7254	4.3035	4.3407	-1.9683	0.2962	0.2582	0.1081	-5.5247	6.4582	6.3732	-6.5741	0.5289	0.3975	0.338	0.306	0.3317	0.2546	0.4085	0.2071	0.4338	0.335	0.2748	0.3827	0.4176	0.206	0.2699	0.374	0.2455	0.3241	0.2842	6.3198	1.4749	4.9171	17	52	1.23343451447555	1	0
"53"	17	30	1	-2	-2	1	15	-1	1	4.685	-3.0421	2.9735	-0.7004	-5.1776	1.1345	-4.9051	-2.4853	-16.0118	-1.6778	-0.5271	-8.8122	5.092	-3.212	6.9242	-3.9431	-3.3012	-4.9602	0.2795	-2.6234	3.1918	0.333	0.333	0.333	0.333	0.333	0.333	0.333	0.333	0.333	0.333	0.333	0.333	0.333	0.333	0.333	0.333	0.333	0.333	0.333	6.327	1.4363	6.1353	17	53	1.54436591569039	0	1
"54"	17	4	1	0	0	1	10	1	0	3.31	3.8603	-1.8809	-4.5652	-2.0309	-5.22	-2.2776	6.5125	5.0502	-2.4101	-8.1282	3.6176	-0.6896	5.8717	4.5135	-0.6538	-0.952	8.6892	-8.5401	3.6741	-5.6174	0.333	0.333	0.333	0.333	0.333	0.333	0.333	0.333	0.333	0.333	0.333	0.333	0.333	0.333	0.333	0.333	0.333	0.333	0.333	6.327	1.6244	4.9446	17	54	1.19694818938897	1	0
"55"	17	67	1	0	0	0	8	-1	0	2.482	-3.0304	-3.4977	0.4064	-2.756	3.2234	-6.4705	-9.4243	-2.9697	-5.4042	11.291	0.7242	-0.6436	9.7579	-1.2658	2.9783	0.291	-1.0071	-1.8377	4.1666	4.145	0.2081	0.2353	0.5219	0.2955	0.3942	0.3032	0.27	0.3564	0.404	0.2174	0.2514	0.5163	0.4794	0.3333	0.2239	0.3222	0.272	0.4622	0.2668	6.3335	1.6909	4.1834	17	55	0.909064686782416	0	1
"56"	17	1	1	-4	-4	1	16	-1	1	5.214	-6.7171	-4.8263	-6.8737	1.6505	-4.0676	2.3691	-2.4837	-8.1504	-9.3805	-4.4644	1.7841	2.9779	-7.6436	-5.3131	1.0271	-2.506	-12.9308	-13.4534	-5.2994	2.7133	0.333	0.333	0.333	0.333	0.333	0.333	0.333	0.333	0.333	0.333	0.333	0.333	0.333	0.333	0.333	0.333	0.333	0.333	0.333	6.327	1.5023	6.7311	17	56	1.65134731551131	0	1
"57"	17	12	1	1	1	0	12	1	1	4.062	-0.8823	-0.659	-2.8453	-0.8722	-2.1575	0.5635	1.2728	-3.2609	10.8381	5.0777	6.3767	1.9874	11.9586	-8.1733	0.6471	4.7765	2.0365	-6.4404	-2.4721	2.5085	0.4437	0.3388	0.272	0.4615	0.2675	0.2071	0.3189	0.3826	0.4824	0.371	0.2319	0.2846	0.32	0.2159	0.4143	0.4851	0.2927	0.3302	0.2064	6.3269	1.5734	5.6463	17	57	1.40167546315819	1	0
"58"	17	61	1	1	1	1	14	1	1	4.575	-1.39	-2.5457	11.2948	1.8246	6.1152	-0.2571	-5.8754	-2.5974	-3.2317	-1.1376	-0.7661	-4.9014	0.7371	11.3051	1.0336	-4.7617	-1.2775	5.5888	1.7446	7.2461	0.333	0.333	0.333	0.333	0.333	0.333	0.333	0.333	0.333	0.333	0.333	0.333	0.333	0.333	0.333	0.333	0.333	0.333	0.333	6.327	1.5751	6.1595	17	58	1.52060669872748	1	0
"59"	17	49	1	4	4	1	6	1	1	1.86	5.037	1.3891	-0.5662	3.897	7.542	16.9989	3.3076	1.1649	12.8239	6.9439	-2.7481	4.838	3.8769	5.3371	6.6101	-4.57	4.6367	6.9962	-1.2405	-0.3701	0.333	0.333	0.333	0.333	0.333	0.333	0.333	0.333	0.333	0.333	0.333	0.333	0.333	0.333	0.333	0.333	0.333	0.333	0.333	6.327	1.5487	3.4105	17	59	0.62057648772511	1	0
"60"	17	43	1	-4	-4	1	17	-1	1	5.424	-7.2659	3.3368	1.4776	-3.8099	-2.8753	1.1654	3.3269	-7.5039	-9.7149	-5.292	-11.727	-5.3236	2.9702	-8.2723	-7.8066	1.5423	-3.1711	-3.8695	-13.0245	-5.0562	0.333	0.333	0.333	0.333	0.333	0.333	0.333	0.333	0.333	0.333	0.333	0.333	0.333	0.333	0.333	0.333	0.333	0.333	0.333	6.327	1.5951	7.0246	17	60	1.69083355063809	0	1
"61"	17	56	1	4	4	0	9	1	1	2.559	1.1019	-0.5734	-2.3251	7.545	7.5372	6.2027	-1.3691	9.3094	10.8703	3.1311	-0.1419	14.4701	1.2826	-1.7452	-1.4297	0.5118	7.6068	11.0982	4.9122	1.5227	0.3096	0.2139	0.3899	0.304	0.3354	0.2255	0.2856	0.4938	0.2845	0.5115	0.2064	0.2892	0.3435	0.5009	0.2324	0.3039	0.37	0.2395	0.4875	6.3269	1.5625	4.1431	17	61	0.939616557177652	1	0
"62"	17	47	1	1	1	1	8	1	1	2.511	0.7733	0.9885	4.6659	3.4459	7.9085	-2.1024	7.8199	2.8277	1.5101	-0.8859	-9.3571	-6.5319	5.1841	-5.828	2.1683	-1.2311	8.1956	1.2004	-5.6472	6.2276	0.333	0.333	0.333	0.333	0.333	0.333	0.333	0.333	0.333	0.333	0.333	0.333	0.333	0.333	0.333	0.333	0.333	0.333	0.333	6.327	1.6215	4.1455	17	62	0.920681080175448	1	0
"63"	17	36	1	-4	-4	0	12	-1	1	3.828	0.7665	6.7884	-4.9581	-12.3103	-3.9232	0.276	-4.9756	-9.0655	-9.4711	-5.3057	-4.3682	5.2122	-8.8529	-1.873	-8.707	-7.2873	-0.5392	-3.5334	-0.0208	-8.8327	0.418	0.2191	0.438	0.3089	0.471	0.2536	0.4197	0.3154	0.2856	0.327	0.2223	0.387	0.2608	0.2988	0.2655	0.3194	0.5182	0.2429	0.3634	6.3346	1.6907	5.5284	17	63	1.34234247359071	0	1
"64"	17	31	1	-1	-1	1	14	-1	1	4.449	-3.4699	-0.5779	0.4973	-5.739	3.6217	-4.8826	-11.0204	-0.0656	-1.5891	-3.5826	5.625	-4.37	9.8752	-4.2564	-1.522	0.9062	-5.3638	3.9179	-4.0372	7.6948	0.333	0.333	0.333	0.333	0.333	0.333	0.333	0.333	0.333	0.333	0.333	0.333	0.333	0.333	0.333	0.333	0.333	0.333	0.333	6.327	1.4896	5.9496	17	64	1.4926793518239	0	1
"65"	17	20	1	2	2	1	10	1	1	3.182	3.8483	1.1615	0.8333	6.5442	8.366	-2.1529	0.1523	10.8565	10.0391	-4.8645	2.2292	1.9628	-1.7025	5.7221	-2.0789	6.1104	-2.7056	0.5057	-7.6806	2.418	0.333	0.333	0.333	0.333	0.333	0.333	0.333	0.333	0.333	0.333	0.333	0.333	0.333	0.333	0.333	0.333	0.333	0.333	0.333	6.327	1.6698	4.8662	17	65	1.1575099299156	1	0
"66"	17	34	1	2	2	1	13	1	1	4.225	3.5358	-3.0862	-1.4223	-8.1163	-1.6482	8.6457	0.252	11.1298	1.8665	-0.6413	-3.0908	5.9394	1.0758	-2.3951	1.8917	4.1638	11.5281	4.5486	3.953	2.5504	0.333	0.333	0.333	0.333	0.333	0.333	0.333	0.333	0.333	0.333	0.333	0.333	0.333	0.333	0.333	0.333	0.333	0.333	0.333	6.327	1.4027	5.6422	17	66	1.44101926080914	1	0
"67"	17	33	1	1	1	1	20	1	1	7.697	-2.9981	2.1421	8.7091	-11.5472	2.3039	-7.7913	-0.3917	0.5683	5.5778	3.7812	-1.5918	5.9289	3.1545	3.0284	2.0233	-1.6295	6.8421	-3.8693	3.7164	3.6909	0.333	0.333	0.333	0.333	0.333	0.333	0.333	0.333	0.333	0.333	0.333	0.333	0.333	0.333	0.333	0.333	0.333	0.333	0.333	6.327	1.4879	9.1982	17	67	2.04083064255218	1	0
"68"	17	29	1	-4	-4	1	4	-1	1	1.003	-7.9572	-3.922	-8.5731	-7.4513	3.8467	-1.0007	2.355	-12.1552	-13.0249	0.4368	-2.9989	0.7457	-10.7671	0.6816	0.3271	-4.1371	-4.5149	-1.3151	-2.2905	-10.0383	0.333	0.333	0.333	0.333	0.333	0.333	0.333	0.333	0.333	0.333	0.333	0.333	0.333	0.333	0.333	0.333	0.333	0.333	0.333	6.327	1.5696	2.5699	17	68	0.00299550897979837	0	1
"69"	17	5	1	1	1	1	5	1	1	1.596	0.1288	-1.912	5.2952	2.3383	-0.3823	-0.3912	-8.4047	1.841	6.4775	2.3327	2.6295	-3.0641	-0.8451	15.1108	-0.0432	6.4992	1.8847	-3.4874	-3.037	-3.3956	0.333	0.333	0.333	0.333	0.333	0.333	0.333	0.333	0.333	0.333	0.333	0.333	0.333	0.333	0.333	0.333	0.333	0.333	0.333	6.327	1.5619	3.1636	17	69	0.467500499027617	1	0
"70"	17	63	1	4	4	1	4	1	1	1.209	4.4283	8.4122	2.458	11.642	7.63	3.6551	-4.3759	3.3491	4.6184	5.8101	-0.9868	5.4014	12.4171	1.4809	-3.6313	4.2646	6.3338	-6.3071	8.1978	5.9446	0.333	0.333	0.333	0.333	0.333	0.333	0.333	0.333	0.333	0.333	0.333	0.333	0.333	0.333	0.333	0.333	0.333	0.333	0.333	6.327	1.5566	2.7768	17	70	0.189793571632656	1	0
"71"	17	20	2	2	2	1	5	1	1	1.422	3.6206	2.4649	12.3055	4.0064	3.8897	0.3882	-5.405	-8.1567	10.8269	7.0376	4.0031	1.5951	5.7831	-1.7992	1.2224	-2.9015	3.9398	-3.8038	0.1305	1.7168	0.333	0.333	0.333	0.333	0.333	0.333	0.333	0.333	0.333	0.333	0.333	0.333	0.333	0.333	0.333	0.333	0.333	0.333	0.333	6.327	1.6703	3.1064	17	71	0.352064331381049	1	0
"72"	17	18	2	0	0	1	7	1	1	2.054	-0.5557	1.1925	-2.7999	-4.4411	-3.3271	5.1867	-5.0946	0.153	3.1947	-3.2648	-6.5704	-0.2938	8.3561	4.514	8.8909	-2.9331	-9.6723	2.8043	-2.1711	6.1512	0.333	0.333	0.333	0.333	0.333	0.333	0.333	0.333	0.333	0.333	0.333	0.333	0.333	0.333	0.333	0.333	0.333	0.333	0.333	6.327	1.591	3.6552	17	72	0.719789111506366	1	0
"73"	17	23	2	-2	-2	0	6	1	0	1.696	0.1377	-4.7948	-3.511	5.1259	6.4454	-10.7161	2.0641	-2.6728	-9.0398	-10.5345	-3.5208	0.1694	-2.3826	1.4911	-2.2888	0.5649	-2.054	6.4031	-1.5961	-7.5353	0.4272	0.2911	0.3855	0.2597	0.2976	0.2254	0.3755	0.4797	0.2412	0.3874	0.2734	0.3297	0.418	0.2695	0.4113	0.27	0.2327	0.5054	0.2481	6.3284	1.4038	3.1137	17	73	0.528272537369711	1	0
"74"	17	8	2	-4	-4	0	4	-1	1	1.105	-8.5911	-9.0845	7.9287	0.323	-1.4202	-6.6138	-2.2966	-4.1589	-6.3206	-9.2649	-8.6388	-7.7444	1.0812	-5.6304	-5.6898	-0.9672	-4.9831	-12.473	0.7605	3.3181	0.3205	0.2308	0.2623	0.3536	0.2365	0.2839	0.252	0.4991	0.2087	0.2402	0.2756	0.5242	0.3576	0.2916	0.5126	0.2669	0.4926	0.3436	0.3834	6.3359	1.6234	2.7387	17	74	0.0998453349697161	0	1
"75"	17	47	2	1	1	1	9	1	1	2.875	1.3886	-1.1106	-5.7413	3.4413	-1.5751	-5.0725	3.5825	4.8434	5.5776	2.0032	3.4426	11.4295	-6.8539	4.933	8.0945	4.2929	-3.8032	0.0783	-3.0646	-6.3489	0.333	0.333	0.333	0.333	0.333	0.333	0.333	0.333	0.333	0.333	0.333	0.333	0.333	0.333	0.333	0.333	0.333	0.333	0.333	6.327	1.6175	4.4928	17	75	1.05605267424931	1	0
"76"	17	55	2	2	2	0	8	1	1	2.639	2.9176	10.6899	1.6031	-4.0813	2.431	7.0908	-0.2782	9.7746	0.2245	-10.0541	1.0822	7.1476	1.7694	-0.882	-3.5054	3.6301	0.7305	-2.4695	5.2291	6.6775	0.4673	0.2349	0.3916	0.3182	0.2337	0.4301	0.2282	0.4034	0.3088	0.2186	0.4501	0.2394	0.2072	0.447	0.2173	0.2539	0.4225	0.4733	0.3814	6.3267	1.6385	4.2896	17	76	0.970400057521187	1	0
"77"	17	36	2	-4	-4	0	6	-1	1	2.026	-4.848	-0.0055	-8.0822	3.1719	-8.062	-8.3595	-2.186	4.4822	-2.1365	-0.8964	-1.7382	-5.2388	0.5802	2.4304	-10.2734	-7.2021	-2.1532	-11.8322	-4.4329	-12.5986	0.5015	0.4491	0.228	0.36	0.3337	0.2014	0.3979	0.4716	0.2489	0.2146	0.3128	0.2302	0.2619	0.4229	0.263	0.3961	0.4606	0.2534	0.3213	6.3288	1.5898	3.627	17	77	0.706063405826492	0	1
"78"	17	64	2	-4	-4	0	8	-1	1	2.456	-3.1246	-0.4777	-2.3206	-2.1551	-0.3735	-12.9386	-3.2289	-5.1022	-12.4838	0.9143	-0.655	-6.0337	-10.4712	0.3185	6.9391	1.0641	-6.7	-6.2139	-5.779	-10.0654	0.3869	0.4305	0.2854	0.2475	0.3355	0.2843	0.2479	0.4495	0.2846	0.342	0.3145	0.2237	0.359	0.317	0.2184	0.4962	0.2325	0.4612	0.4175	6.3343	1.4701	3.923	17	78	0.898534010284896	0	1
"79"	17	42	2	4	4	0	9	1	1	2.59	7.7137	6.0364	0.6886	8.2007	-5.5159	9.0451	12.2546	4.9037	4.4847	-0.7326	3.8773	0.9313	7.539	8.8381	1.4771	5.1421	9.7729	-2.0451	-4.232	-0.0291	0.2562	0.3718	0.4778	0.321	0.2301	0.2628	0.3449	0.2505	0.3255	0.2217	0.3635	0.5102	0.2302	0.3779	0.5231	0.427	0.287	0.2182	0.3262	6.3255	1.6292	4.2409	17	79	0.951657875711446	1	0
"80"	17	11	2	0	0	0	10	1	1	3.21	-2.8782	4.8797	-5.8936	-3.7336	3.778	6.3169	-4.4208	8.9188	-3.7202	-1.7926	2.5331	0.5338	2.0154	3.6619	-2.9195	-11.8013	0.8419	6.3548	-1.2378	0.1163	0.3626	0.311	0.3889	0.4398	0.2213	0.3089	0.2283	0.4213	0.2317	0.4163	0.2311	0.5245	0.2226	0.4273	0.3362	0.2242	0.372	0.3421	0.3081	6.318	1.564	4.7938	17	80	1.16627093714192	1	0
"81"	17	51	2	-2	-2	0	8	-1	1	2.269	-3.5023	-14.0879	-2.5058	2.9706	-4.6852	-2.6535	-0.2051	-2.8773	4.4188	0.9261	-7.9805	-0.5521	5.424	-0.2857	-13.4722	-2.1095	1.7526	0.9033	-0.7027	0.5613	0.2528	0.3074	0.448	0.2422	0.3854	0.3009	0.2005	0.2518	0.3923	0.5123	0.4665	0.2276	0.5042	0.3173	0.212	0.3565	0.2083	0.4736	0.2668	6.3263	1.7154	4.0034	17	81	0.819339205797705	0	1
"82"	17	24	2	-1	-1	0	10	1	0	3.28	-0.1799	-2.0205	-8.0671	1.4321	0.8152	5.3211	-6.4741	-2.8492	-8.3412	4.1724	-5.5017	1.4045	-3.4236	-0.4133	6.3834	-5.7894	-9.7479	6.8311	3.1142	2.3258	0.5072	0.226	0.357	0.2194	0.404	0.485	0.2405	0.4224	0.3163	0.2254	0.3415	0.4942	0.2819	0.2125	0.4229	0.3574	0.2356	0.3252	0.2449	6.3193	1.5152	4.814	17	82	1.18784342239605	1	0
"83"	17	63	2	4	4	1	11	1	1	3.477	-0.7594	-1.5469	8.399	-0.2656	11.7666	5.3246	5.2778	8.7141	7.2828	2.7705	4.2043	5.8165	-2.9621	-1.7407	-7.7886	8.1244	5.536	4.6302	10.2259	5.9576	0.333	0.333	0.333	0.333	0.333	0.333	0.333	0.333	0.333	0.333	0.333	0.333	0.333	0.333	0.333	0.333	0.333	0.333	0.333	6.327	1.6962	5.1773	17	83	1.24616985302572	1	0
"84"	17	53	2	0	0	0	13	1	1	3.904	-1.4203	-1.1753	3.3017	-6.4017	3.5491	2.2459	8.7491	-2.3682	5.0306	-2.2211	-1.1704	-10.4012	0.0288	-0.6657	11.2972	-1.2033	-3.4971	4.2375	-4.9734	-3.7574	0.2968	0.2154	0.4244	0.3005	0.3673	0.2165	0.2995	0.2379	0.2119	0.4829	0.3371	0.4619	0.2402	0.2116	0.4653	0.3368	0.4012	0.3666	0.454	6.3277	1.7287	5.6386	17	84	1.36200166855085	1	0
"85"	17	34	2	2	2	1	10	1	1	3.145	-1.4076	8.5455	-5.2369	-1.74	9.7606	-0.7391	8.8969	-3.8788	3.4959	-3.6513	-1.623	2.2873	10.8199	0.2379	6.5142	3.5168	-1.5209	-2.6566	5.6931	3.2682	0.333	0.333	0.333	0.333	0.333	0.333	0.333	0.333	0.333	0.333	0.333	0.333	0.333	0.333	0.333	0.333	0.333	0.333	0.333	6.327	1.6541	4.8124	17	85	1.1458138901524	1	0
"86"	17	6	2	2	2	1	5	1	1	1.621	1.0794	3.9895	2.0177	7.3566	-4.6239	-1.5359	1.1965	-2.1367	6.671	8.0599	6.6143	3.8788	-2.0223	-3.8856	-3.4939	2.7316	-6.007	6.7162	13.1056	0.854	0.333	0.333	0.333	0.333	0.333	0.333	0.333	0.333	0.333	0.333	0.333	0.333	0.333	0.333	0.333	0.333	0.333	0.333	0.333	6.327	1.6343	3.2549	17	86	0.483043242753539	1	0
"87"	17	69	2	2	2	0	6	1	1	1.969	5.9198	2.3684	-7.4609	11.9074	4.687	0.0412	-9.4136	-0.984	3.093	-1.7875	4.3247	1.8338	2.832	9.5229	2.1553	-3.0127	5.713	2.786	-0.2934	4.7394	0.492	0.3061	0.3591	0.519	0.2061	0.237	0.3158	0.4341	0.5177	0.2904	0.2297	0.2043	0.233	0.3143	0.4546	0.3645	0.2061	0.3956	0.2502	6.3294	1.6514	3.6196	17	87	0.677525799656989	1	0
"88"	17	9	2	-2	-2	0	10	1	0	3.216	-1.233	-2.1574	-6.5261	4.1699	-4.9584	-3.5011	1.4362	-12.3387	-1.5515	-0.7845	-3.0084	6.8807	2.0949	-4.2773	3.9227	5.6026	-3.1891	-5.0953	-6.2841	-9.3235	0.3649	0.2302	0.5175	0.3418	0.3007	0.4173	0.3827	0.2355	0.2085	0.2432	0.3576	0.4446	0.2055	0.3764	0.3016	0.4168	0.2151	0.2961	0.4729	6.3289	1.4878	4.7002	17	88	1.16813835131672	1	0
"89"	17	59	2	-1	-1	1	11	1	0	3.441	0.1816	0.169	0.6643	-4.6618	-4.9764	-5.0378	5.4029	4.6194	7.2008	-1.3968	-1.3556	4.776	-3.4464	-4.9804	-8.2785	-3.7429	2.9649	6.4336	-10.4428	-3.3498	0.333	0.333	0.333	0.333	0.333	0.333	0.333	0.333	0.333	0.333	0.333	0.333	0.333	0.333	0.333	0.333	0.333	0.333	0.333	6.327	1.6711	5.1088	17	89	1.23576212681534	1	0
"90"	17	45	2	-1	-1	1	5	-1	1	1.336	-5.557	-7.5728	-4.3801	-2.4155	9.4833	-4.0921	6.5322	-1.7433	2.4545	-5.2508	-2.3677	0.8328	0.8637	7.9771	-5.2959	-4.0163	3.0494	1.8808	-8.0296	-0.6678	0.333	0.333	0.333	0.333	0.333	0.333	0.333	0.333	0.333	0.333	0.333	0.333	0.333	0.333	0.333	0.333	0.333	0.333	0.333	6.327	1.672	3.0201	17	90	0.289680075114454	0	1
"91"	17	5	2	1	1	1	5	1	1	1.529	2.2694	2.8119	2.3669	6.1049	-4.1278	-6.5575	-6.1856	3.1599	0.2125	-5.089	8.0591	-6.0684	-0.7893	3.6909	-3.2895	-0.5365	4.1063	11.198	-0.0974	7.1554	0.333	0.333	0.333	0.333	0.333	0.333	0.333	0.333	0.333	0.333	0.333	0.333	0.333	0.333	0.333	0.333	0.333	0.333	0.333	6.327	1.6487	3.1965	17	91	0.424613926946925	1	0
"92"	17	22	2	-4	-4	0	10	-1	1	3.285	-1.1295	1.7214	-2.6017	-7.4761	-7.5473	-7.4805	0.1085	1.8791	-5.1641	4.9728	-8.9088	-0.1844	-9.7792	-5.9179	-1.9139	-6.5611	-13.8856	-1.3573	-0.4258	-10.3107	0.381	0.2116	0.507	0.2459	0.4398	0.245	0.3547	0.2795	0.4286	0.2689	0.2157	0.2699	0.2957	0.39	0.4407	0.4031	0.4433	0.2844	0.2132	6.3176	1.4277	4.7194	17	92	1.18936665193657	0	1
"93"	17	25	2	0	0	0	8	1	1	2.233	-0.3186	2.9735	3.9059	-1.3995	-0.2105	8.6806	-4.6956	-4.4667	1.298	0.6154	-16.0242	-2.5442	0.524	2.8668	1.0571	5.1307	4.8869	1.6663	1.9897	-3.9409	0.2696	0.3319	0.2131	0.4995	0.3091	0.2511	0.2767	0.4576	0.4911	0.4414	0.2179	0.2849	0.4497	0.4107	0.3037	0.2288	0.3635	0.214	0.3206	6.3348	1.5017	3.7503	17	93	0.803345972858021	1	0
"94"	17	28	2	4	4	0	8	1	1	2.604	6.5964	-1.0691	7.2483	1.7017	2.8862	4.9342	9.3524	3.3293	-4.0892	4.6359	8.8961	-3.188	9.0741	14.6038	4.9327	10.529	3.3737	-0.7701	-3.6694	2.5091	0.2736	0.2151	0.5063	0.2351	0.4754	0.4119	0.2648	0.3951	0.3695	0.4283	0.3348	0.2439	0.3572	0.2337	0.5208	0.2071	0.2928	0.3669	0.2034	6.3357	1.6747	4.2883	17	94	0.957048724346323	1	0
"95"	17	29	2	-4	-4	1	11	-1	1	3.66	-7.2763	-2.7265	-4.7803	-2.7122	5.7909	-12.7651	0.3174	-1.1162	1.9306	-11.0705	-4.4262	-5.3844	-5.5349	-1.613	-8.3867	-3.4707	-0.8565	-13.0265	2.3362	-6.3845	0.333	0.333	0.333	0.333	0.333	0.333	0.333	0.333	0.333	0.333	0.333	0.333	0.333	0.333	0.333	0.333	0.333	0.333	0.333	6.327	1.4815	5.1445	17	95	1.29746314741327	0	1
"96"	17	30	2	-2	-2	1	12	-1	1	3.681	2.915	-8.5916	0.0818	2.4712	6.7597	-7.4369	-3.3736	-1.96	-2.8248	2.4902	3.3575	-5.602	6.3357	-4.1319	-2.3741	-9.2325	-6.3095	-3.816	0.3621	-8.7346	0.333	0.333	0.333	0.333	0.333	0.333	0.333	0.333	0.333	0.333	0.333	0.333	0.333	0.333	0.333	0.333	0.333	0.333	0.333	6.327	1.4596	5.1485	17	96	1.30318445439688	0	1
"97"	17	67	2	0	0	0	11	1	1	3.569	3.9127	-1.5409	3.4521	3.1078	-1.0406	-0.0988	1.2208	0.0085	1.0542	9.0741	-9.8807	-7.9897	-0.8146	-0.7006	-1.4178	-4.7596	3.5255	8.1655	-9.2721	3.624	0.3652	0.2225	0.312	0.4034	0.5213	0.2517	0.3871	0.2509	0.3771	0.2985	0.3814	0.2635	0.3003	0.4192	0.3879	0.2292	0.3146	0.2742	0.3654	6.3257	1.4079	4.9863	17	97	1.27228544450802	1	0
"98"	17	50	2	-4	-4	0	9	-1	1	3.116	-0.405	0.0019	-1.2052	-1.719	-12.4944	-0.0689	-7.8213	-4.9547	2.1843	-8.3116	1.3398	-9.0953	3.95	-10.0629	-1.7913	-0.3521	-10.169	-2.3127	-10.5718	-7.655	0.3014	0.3551	0.4351	0.2822	0.4998	0.2679	0.2972	0.3818	0.3322	0.4694	0.2919	0.2144	0.3849	0.3081	0.2293	0.4239	0.203	0.4144	0.2291	6.3211	1.6847	4.7998	17	98	1.1365501280085	0	1
"99"	17	14	2	4	4	0	13	1	1	4.349	6.7505	2.3255	6.9467	5.2971	2.2527	-0.8956	3.2957	13.5445	3.3812	0.4623	6.2303	11.058	9.5569	5.8151	-4.1727	-0.4333	2.075	5.5752	-6.7235	7.0677	0.3859	0.342	0.2728	0.3827	0.218	0.2931	0.3246	0.2292	0.4875	0.4606	0.4203	0.3331	0.2988	0.3595	0.2795	0.2074	0.322	0.255	0.4646	6.3365	1.4996	5.8496	17	99	1.4699459336155	1	0
"100"	17	52	2	-1	-1	0	8	-1	1	2.524	-0.2328	-0.1144	-3.2904	-9.1844	5.0285	-0.0813	-9.0571	0.1753	2.3499	2.4615	4.531	-7.9026	-4.4686	5.4975	0.0889	-7.6417	1.2	0.7607	-5.4781	6.9973	0.3232	0.3937	0.2274	0.4906	0.2503	0.4297	0.2431	0.3444	0.2211	0.3054	0.3441	0.4594	0.4039	0.2223	0.4077	0.3603	0.2502	0.4173	0.2392	6.3334	1.6859	4.2086	17	100	0.925844944678967	0	1
"101"	17	21	2	4	4	1	9	1	1	2.67	4.8625	-2.4925	4.0486	-2.9243	1.3151	3.8534	5.0904	8.8578	13.2875	13.8556	0.3773	1.5147	3.2581	7.2937	11.7366	4.3346	3.5471	3.1391	-0.9677	-2.2675	0.333	0.333	0.333	0.333	0.333	0.333	0.333	0.333	0.333	0.333	0.333	0.333	0.333	0.333	0.333	0.333	0.333	0.333	0.333	6.327	1.7073	4.3872	17	101	0.982078472412158	1	0
"102"	17	58	2	-2	-2	1	7	-1	1	2.162	-4.0893	-4.814	-7.5205	-12.7098	-1.5749	-5.7852	-6.732	-7.5209	4.2685	1.7583	0.6272	0.2443	5.7258	-0.5765	-5.8009	3.9182	4.1919	0.6409	-6.6904	2.5025	0.333	0.333	0.333	0.333	0.333	0.333	0.333	0.333	0.333	0.333	0.333	0.333	0.333	0.333	0.333	0.333	0.333	0.333	0.333	6.327	1.6374	3.8126	17	102	0.771033719217016	0	1
"103"	17	57	2	-4	-4	1	13	-1	1	4.158	-6.0565	1.58	0.2008	-0.2439	-4.504	-1.9264	-9.3054	-3.1006	-15.4224	0.9811	1.7697	-9.8128	-1.7151	-0.8618	-9.2864	-8.5739	3.5006	-1.8859	-4.8033	-9.631	0.333	0.333	0.333	0.333	0.333	0.333	0.333	0.333	0.333	0.333	0.333	0.333	0.333	0.333	0.333	0.333	0.333	0.333	0.333	6.327	1.6375	5.809	17	103	1.42503418943582	0	1
"104"	17	2	2	-2	-2	1	15	1	0	4.756	2.557	3.2009	-4.7078	1.1436	-4.5789	-2.0417	-0.8801	8.7054	3.3314	-1.7604	-5.2223	-0.037	-7.0493	-5.3305	6.1504	-5.5851	-2.3468	-12.6044	-4.0435	-7.2752	0.333	0.333	0.333	0.333	0.333	0.333	0.333	0.333	0.333	0.333	0.333	0.333	0.333	0.333	0.333	0.333	0.333	0.333	0.333	6.327	1.5446	6.3068	17	104	1.55940697882854	1	0
"105"	17	60	2	0	0	1	10	-1	0	3.152	0.7386	-4.1203	6.7009	0.1463	3.4802	-9.6206	-2.4659	-0.2593	-8.8509	6.8944	5.0887	1.8084	7.859	-6.6288	-1.0355	1.2199	-4.4827	-0.8274	-0.9027	3.8707	0.333	0.333	0.333	0.333	0.333	0.333	0.333	0.333	0.333	0.333	0.333	0.333	0.333	0.333	0.333	0.333	0.333	0.333	0.333	6.327	1.5143	4.669	17	105	1.14803717199563	0	1
"106"	17	7	2	4	4	1	10	1	1	3.139	-0.7171	1.1207	4.6559	2.6723	-0.2675	5.3249	4.132	10.4755	1.4225	12.5546	9.6683	1.5068	9.9948	0.5917	-3.6264	1.659	-2.8004	8.9201	0.0295	13.152	0.333	0.333	0.333	0.333	0.333	0.333	0.333	0.333	0.333	0.333	0.333	0.333	0.333	0.333	0.333	0.333	0.333	0.333	0.333	6.327	1.641	4.7894	17	106	1.14390427785982	1	0
"107"	17	3	2	-1	-1	1	11	1	0	3.626	-0.4653	9.2797	-5.6814	10.3688	-4.3865	-4.042	-2.7814	-2.1714	-4.7331	-0.0548	1.9586	-7.5961	-4.8443	-6.7693	2.4836	2.0998	-2.4365	3.2015	1.684	-6.1328	0.333	0.333	0.333	0.333	0.333	0.333	0.333	0.333	0.333	0.333	0.333	0.333	0.333	0.333	0.333	0.333	0.333	0.333	0.333	6.327	1.4038	5.0432	17	107	1.28813011233266	1	0
"108"	17	13	2	2	2	0	9	1	1	2.936	5.6283	-3.4927	0.5629	2.1105	-3.4869	-3.8948	5.2024	-0.5668	-3.3824	8.0339	14.182	-1.9378	4.3756	1.525	-4.5327	1.8535	6.0259	6.4806	-2.7765	6.1885	0.3267	0.2881	0.2023	0.3487	0.4479	0.2785	0.4995	0.3284	0.2927	0.448	0.2106	0.5068	0.2406	0.2847	0.2416	0.2697	0.2422	0.3522	0.519	6.328	1.7089	4.6536	17	108	1.07704811075227	1	0
"109"	17	65	2	-2	-2	0	17	-1	1	5.457	-3.9625	2.7831	1.9051	-0.8408	0.5997	-2.761	2.1585	0.437	6.9344	-3.042	-8.7948	-5.1833	5.8202	-3.4255	-9.308	-7.0177	1.6417	-11.9816	-6.7603	-0.9014	0.3409	0.2574	0.2066	0.304	0.3492	0.2585	0.4634	0.3822	0.2204	0.3436	0.2919	0.2457	0.3982	0.4815	0.3426	0.3706	0.5156	0.2241	0.3316	6.3281	1.5852	7.0412	17	109	1.69689918820409	0	1
"110"	17	15	2	-4	-4	1	8	-1	1	2.355	-0.6854	-3.103	-11.5463	-2.3373	-1.7192	-14.8146	-1.514	-3.9031	4.3118	-7.6926	-6.8917	-4.4734	-2.3604	0.8743	-10.0228	-6.806	-3.7952	-6.4877	5.3603	-1.5204	0.333	0.333	0.333	0.333	0.333	0.333	0.333	0.333	0.333	0.333	0.333	0.333	0.333	0.333	0.333	0.333	0.333	0.333	0.333	6.327	1.4543	3.8225	17	110	0.856540727468381	0	1
"111"	17	27	2	2	2	0	11	1	1	3.367	1.7132	-3.6537	6.678	1.2148	1.9951	1.5437	1.9366	0.7813	10.8961	-5.4101	13.9008	3.7043	6.2338	-0.2379	5.5197	-0.456	-0.1668	-8.149	3.2514	0.2376	0.4031	0.4924	0.2449	0.216	0.4363	0.2229	0.2516	0.3024	0.432	0.2827	0.5283	0.3326	0.2167	0.2475	0.3524	0.5235	0.3286	0.2144	0.2984	6.3268	1.6074	4.9847	17	111	1.21402214017894	1	0
"112"	17	10	2	-1	-1	0	11	-1	1	3.596	-1.7862	-4.9128	-4.3216	-0.4689	-1.6614	-8.1883	-5.0243	4.0384	-6.1074	4.6274	4.2942	2.1218	-4.0552	9.2226	1.9511	1.5288	-1.5006	6.8042	-7.77	-7.0902	0.5301	0.2235	0.2681	0.4349	0.2971	0.4907	0.4101	0.2145	0.4411	0.2365	0.3466	0.2438	0.4709	0.2498	0.3091	0.2338	0.3138	0.3453	0.2728	6.3321	1.7303	5.3471	17	112	1.27982211660937	0	1
"113"	17	66	2	-1	-1	0	9	1	0	2.751	2.9376	2.9639	-3.7386	1.1157	5.3246	-5.9334	5.9585	3.3376	-1.6896	-13.3722	3.8439	-0.9769	-9.6204	2.1548	-6.3693	-4.1683	-1.3541	1.5086	-1.6544	-1.95	0.3826	0.2624	0.3889	0.2854	0.3229	0.3832	0.2888	0.332	0.2182	0.4484	0.4762	0.5033	0.2572	0.3483	0.2188	0.3691	0.3247	0.281	0.2396	6.3311	1.6165	4.3846	17	113	1.01196448194244	1	0
"114"	17	12	2	1	1	0	10	1	1	3.544	4.2149	5.6245	-4.747	4.8335	-5.9036	2.6603	1.1561	-2.9113	2.343	-0.2697	-0.7534	6.6223	-2.8418	8.8295	6.4796	2.3292	-3.3176	0.5666	-10.6979	6.5974	0.2488	0.4144	0.3088	0.5128	0.36	0.2407	0.4459	0.238	0.3724	0.4687	0.227	0.42	0.2311	0.3476	0.2673	0.2329	0.2771	0.4948	0.2096	6.3177	1.5728	5.1283	17	114	1.26525603274283	1	0
"115"	17	62	2	2	2	1	13	1	1	4.288	2.2232	4.2203	4.7739	-2.714	0.4126	4.3136	-1.2995	-3.7585	-7.908	1.2372	11.8544	1.8299	1.0737	-2.284	10.7928	1.5289	-0.9089	-0.0122	6.1215	8.9011	0.333	0.333	0.333	0.333	0.333	0.333	0.333	0.333	0.333	0.333	0.333	0.333	0.333	0.333	0.333	0.333	0.333	0.333	0.333	6.327	1.5586	5.8555	17	115	1.4558204237685	1	0
"116"	17	46	2	0	0	1	11	-1	1	3.559	3.2758	4.3278	4.9062	-0.0013	-6.8548	-2.0513	0.4282	-3.1357	-8.2295	1.6661	-3.2818	-0.2122	-4.5398	6.3701	11.9496	-0.7472	5.2601	-1.8594	-6.6061	-1.4552	0.333	0.333	0.333	0.333	0.333	0.333	0.333	0.333	0.333	0.333	0.333	0.333	0.333	0.333	0.333	0.333	0.333	0.333	0.333	6.327	1.4945	5.0602	17	116	1.26947960652806	0	1
"117"	17	37	2	-2	-2	0	5	-1	1	1.699	-5.2094	3.4567	-3.0919	6.07	-8.5039	2.394	-6.875	4.1795	-0.773	-7.5495	-2.7856	-4.5339	-3.2037	4.0701	-1.2981	-6.4041	-4.1454	-3.3961	-8.8373	7.2125	0.3181	0.4808	0.2299	0.4673	0.2469	0.2108	0.3975	0.2225	0.3332	0.2669	0.3333	0.3623	0.4339	0.5196	0.307	0.2452	0.348	0.3212	0.2913	6.3356	1.4414	3.1494	17	117	0.530039842689795	0	1
"118"	17	49	2	4	4	1	10	1	1	3.145	7.8001	1.1788	-2.7031	3.9139	-0.0081	1.0407	0.0547	-2.9122	6.4789	0.223	2.1544	5.8536	11.4928	11.7769	5.2286	12.4062	1.6375	12.3568	2.0659	-0.9878	0.333	0.333	0.333	0.333	0.333	0.333	0.333	0.333	0.333	0.333	0.333	0.333	0.333	0.333	0.333	0.333	0.333	0.333	0.333	6.327	1.6708	4.8129	17	118	1.1458138901524	1	0
"119"	17	32	2	0	0	1	6	-1	1	1.899	-3.4324	3.3048	-3.9707	-3.9687	3.7509	0.1965	4.8636	1.6746	-3.7122	-2.3435	-4.8729	2.845	0.0299	-7.7234	8.7373	-7.1104	7.9872	4.7708	3.5915	-6.2556	0.333	0.333	0.333	0.333	0.333	0.333	0.333	0.333	0.333	0.333	0.333	0.333	0.333	0.333	0.333	0.333	0.333	0.333	0.333	6.327	1.4938	3.3995	17	119	0.641327431830149	0	1
"120"	17	17	2	-1	-1	1	11	-1	1	3.37	-1.6039	1.8438	-0.0934	0.7941	5.5826	-5.0101	-1.7123	-2.6646	-2.5185	-1.604	-6.5265	1.6695	0.4551	-4.2751	9.5722	0.0694	-4.5323	-7.9911	9.4024	-9.7804	0.333	0.333	0.333	0.333	0.333	0.333	0.333	0.333	0.333	0.333	0.333	0.333	0.333	0.333	0.333	0.333	0.333	0.333	0.333	6.327	1.6382	5.0045	17	120	1.21491274436427	0	1
"121"	17	16	2	-2	-2	1	9	-1	1	2.951	-3.4075	2.0802	-7.2001	-7.1532	-10.4911	-3.6493	-10.257	1.704	-1.2697	1.0814	6.0316	-10.5147	-1.6051	2.6391	-1.169	-5.7718	1.1159	4.2711	-0.8323	2.9096	0.333	0.333	0.333	0.333	0.333	0.333	0.333	0.333	0.333	0.333	0.333	0.333	0.333	0.333	0.333	0.333	0.333	0.333	0.333	6.327	1.4498	4.4183	17	121	1.0821440959608	0	1
"122"	17	39	2	0	0	0	4	1	0	1.216	4.59	3.6452	2.6755	0.5622	0.1871	6.4905	5.1965	-4.5083	-2.6191	4.1066	-5.157	-7.4886	-5.8657	1.0378	0.2152	10.691	0.6127	-7.9779	-5.3833	-0.354	0.3387	0.4031	0.2193	0.4333	0.3728	0.2914	0.4262	0.2322	0.487	0.2013	0.2548	0.3971	0.2113	0.251	0.3572	0.4844	0.3813	0.2109	0.378	6.3312	1.6628	2.8999	17	122	0.195566783543975	1	0
"123"	17	61	2	1	1	1	8	-1	0	2.349	3.8311	-8.1074	6.6689	3.2028	-3.5517	0.9624	5.8182	1.0773	2.1113	0.292	-10.4523	-1.3049	-7.208	5.2399	-0.1149	5.5576	8.2466	2.2309	1.5977	2.3938	0.333	0.333	0.333	0.333	0.333	0.333	0.333	0.333	0.333	0.333	0.333	0.333	0.333	0.333	0.333	0.333	0.333	0.333	0.333	6.327	1.6668	4.0327	17	123	0.853989705676776	0	1
"124"	17	40	2	1	1	0	6	1	1	2.158	-0.642	2.6976	1.78	1.8978	2.862	-3.2225	-3.5744	10.3864	6.661	-2.7359	2.2426	9.9743	0.6786	2.1425	-5.4648	-5.9863	7.1832	-6.5021	2.8043	-3.0901	0.4728	0.2394	0.4034	0.2414	0.5039	0.3062	0.2044	0.3744	0.2455	0.3945	0.4419	0.4121	0.2603	0.4161	0.2921	0.3893	0.2338	0.2758	0.2166	6.3239	1.4248	3.5919	17	124	0.769181866835943	1	0
"125"	17	35	2	4	4	1	6	1	1	1.7	2.2673	0.837	3.3219	5.7751	9.1895	3.7401	10.1354	8.445	6.0176	-9.3108	6.6541	-1.0981	4.1091	5.9031	3.0566	0.241	-1.604	8.3911	0.9527	13.3934	0.333	0.333	0.333	0.333	0.333	0.333	0.333	0.333	0.333	0.333	0.333	0.333	0.333	0.333	0.333	0.333	0.333	0.333	0.333	6.327	1.6993	3.4176	17	125	0.53062825106217	1	0
"126"	17	54	2	1	1	0	10	-1	0	3.339	-3.3463	5.274	1.5266	1.1956	5.5712	7.0304	0.008	8.612	3.9121	1.5703	2.9396	5.8267	-5.951	-13.607	-2.6799	-0.2745	0.8367	0.601	-0.9727	2.8417	0.4615	0.2219	0.3055	0.5008	0.2432	0.2967	0.4449	0.4062	0.218	0.3179	0.2371	0.3064	0.4017	0.2944	0.2578	0.3211	0.4886	0.2026	0.3945	6.3206	1.5163	4.8566	17	126	1.20567136096152	0	1
"127"	17	48	2	2	2	1	10	1	1	3.153	4.022	2.7394	-7.4532	9.4479	-7.8066	-0.8662	6.9066	0.4514	4.7274	4.0295	4.5831	-4.1878	6.32	5.3218	7.3023	7.3878	-0.9881	-2.6087	-1.1469	3.3154	0.333	0.333	0.333	0.333	0.333	0.333	0.333	0.333	0.333	0.333	0.333	0.333	0.333	0.333	0.333	0.333	0.333	0.333	0.333	6.327	1.4736	4.6368	17	127	1.14835438056292	1	0
"128"	17	70	2	4	4	0	10	1	1	2.955	1.6629	4.4989	9.0586	11.5561	3.4511	5.17	-3.5673	5.1295	2.8173	5.9891	8.4809	4.6478	3.3998	1.3754	-2.564	10.1174	-2.6444	13.4347	1.8008	-3.5228	0.2303	0.3884	0.4646	0.2373	0.2061	0.2405	0.35	0.2063	0.3746	0.3175	0.4892	0.4201	0.2539	0.3228	0.5173	0.4392	0.3218	0.2445	0.3057	6.3299	1.6756	4.6387	17	128	1.08349865085806	1	0
"129"	17	4	2	0	0	1	12	1	1	3.67	1.7362	-2.979	0.7296	8.6426	-6.3886	-2.5772	-8.3939	9.279	1.2189	6.1428	-4.6913	4.4169	0.4291	-2.0062	5.4724	-2.7894	2.8388	-2.4953	-4.4721	-3.1448	0.333	0.333	0.333	0.333	0.333	0.333	0.333	0.333	0.333	0.333	0.333	0.333	0.333	0.333	0.333	0.333	0.333	0.333	0.333	6.327	1.4408	5.1204	17	129	1.30019166206648	1	0
"130"	17	31	2	-1	-1	1	11	-1	1	3.359	-1.0643	-6.9263	1.1371	-5.9001	-1.2322	4.9451	-3.2202	-3.5494	-6.9367	1.349	0.1784	9.7886	-5.3316	5.4872	-7.8263	3.864	-0.1986	-0.2248	3.6317	-9.3754	0.333	0.333	0.333	0.333	0.333	0.333	0.333	0.333	0.333	0.333	0.333	0.333	0.333	0.333	0.333	0.333	0.333	0.333	0.333	6.327	1.4179	4.7758	17	130	1.21164331063016	0	1
"131"	17	33	2	1	1	1	9	1	1	2.975	0.2759	0.0352	3.0375	-1.9406	1.9397	11.0528	-3.6167	4.4014	4.3849	-6.7738	-0.9828	2.1719	3.5318	7.7411	6.7704	-1.606	-9.8062	-4.8102	0.8138	3.4764	0.333	0.333	0.333	0.333	0.333	0.333	0.333	0.333	0.333	0.333	0.333	0.333	0.333	0.333	0.333	0.333	0.333	0.333	0.333	6.327	1.5929	4.5757	17	131	1.09024403899759	1	0
"132"	17	43	2	-4	-4	1	3	-1	1	0.986	-6.6747	-13.1314	0.4404	1.8499	-8.0825	-11.9831	-6.3488	-8.8857	-1.9311	-2.0343	-0.5767	0.1136	0.6386	-8.6188	-4.4435	-7.0052	-0.4555	0.7543	4.657	-6.4913	0.333	0.333	0.333	0.333	0.333	0.333	0.333	0.333	0.333	0.333	0.333	0.333	0.333	0.333	0.333	0.333	0.333	0.333	0.333	6.327	1.4127	2.4202	17	132	-0.0140989243795016	0	1
"133"	17	41	2	2	2	0	4	-1	0	1.371	-1.5115	-3.9744	-8.5318	9.7321	4.6981	1.826	-3.6916	-2.8915	2.5388	9.4862	5.3821	-2.2741	5.4917	-0.6119	3.1876	5.2639	3.7972	8.9174	-1.6603	3.543	0.4653	0.326	0.3937	0.2117	0.4175	0.2812	0.23	0.392	0.3204	0.2876	0.3277	0.3651	0.2554	0.5005	0.4108	0.2567	0.4517	0.2002	0.2331	6.3264	1.6906	3.0713	17	133	0.315540400580177	0	1
"134"	17	19	2	1	1	1	14	1	1	4.644	-3.4801	-0.2611	12.0448	-1.2794	-0.4693	0.9877	-1.8086	8.4146	0.0428	1.6386	-3.4134	10.6028	3.3227	0.4911	-5.378	-4.7555	5.0933	1.9854	0.0555	-5.1351	0.333	0.333	0.333	0.333	0.333	0.333	0.333	0.333	0.333	0.333	0.333	0.333	0.333	0.333	0.333	0.333	0.333	0.333	0.333	6.327	1.6208	6.2784	17	134	1.53557606383565	1	0
"135"	17	68	2	1	1	0	8	1	1	2.639	-1.9336	-4.2041	-4.0547	4.8124	7.1615	-4.6439	4.5146	-4.9092	6.9529	4.8582	3.9465	-4.4052	1.1546	-8.8772	1.249	-2.7579	8.4866	4.1479	6.0469	1.3369	0.2139	0.3926	0.5186	0.2113	0.4091	0.5235	0.2384	0.2958	0.3298	0.4029	0.2691	0.4633	0.3198	0.2075	0.2927	0.3243	0.2506	0.4448	0.227	6.3351	1.5542	4.2059	17	135	0.970400057521187	1	0
"136"	17	1	2	-4	-4	1	6	-1	1	1.767	-5.5224	-3.562	0.0289	-4.1396	-10.7037	3.6089	1.1618	-1.4381	-3.8771	5.2425	-4.8811	-13.4881	-2.4716	-11.8331	0.6801	-7.662	-4.5233	-5.3072	-3.9054	-9.318	0.333	0.333	0.333	0.333	0.333	0.333	0.333	0.333	0.333	0.333	0.333	0.333	0.333	0.333	0.333	0.333	0.333	0.333	0.333	6.327	1.5887	3.3681	17	136	0.569283193337559	0	1
"137"	17	38	2	-1	-1	0	7	-1	1	2.019	-0.8223	-2.7327	4.8005	-12.5665	-5.738	-7.5835	1.2865	-6.5649	2.8293	-6.8486	3.4664	-1.2804	-4.2495	1.826	3.095	-1.0483	6.368	1.4775	4.0674	2.0943	0.3527	0.2531	0.3846	0.2279	0.3782	0.3487	0.2844	0.4246	0.4563	0.2614	0.4275	0.288	0.3422	0.3149	0.257	0.2903	0.3807	0.3547	0.3018	6.329	1.4094	3.4358	17	137	0.7026023393307	0	1
"138"	17	26	2	1	1	0	7	1	1	2.221	4.9498	4.1907	-3.26	0.9968	5.5995	0.5928	-1.8559	2.4095	2.1884	-3.6388	11.4119	6.1599	-9.5026	-4.6646	1.5492	-4.6198	0.2514	-1.8266	7.815	-0.3404	0.2835	0.3223	0.3585	0.4536	0.4171	0.3279	0.4373	0.3309	0.2105	0.2888	0.3887	0.3017	0.2651	0.3342	0.4366	0.2106	0.3526	0.2038	0.4083	6.3319	1.4207	3.6554	17	138	0.79795754491229	1	0
"139"	17	56	2	4	4	0	8	1	1	2.222	3.0411	5.4212	5.2535	7.6101	12.7742	11.4102	3.6984	-0.5201	8.448	-1.76	1.0425	2.9294	10.016	-1.7217	5.8856	3.3622	-4.1051	8.3559	-3.7074	1.0321	0.2498	0.3166	0.3787	0.3193	0.2317	0.4188	0.21	0.3412	0.2998	0.2713	0.3064	0.3378	0.3048	0.4473	0.3663	0.2326	0.4221	0.392	0.4825	6.3291	1.4453	3.6728	17	139	0.798407691217438	1	0
"140"	17	44	2	-2	-2	1	8	-1	1	2.45	-5.0198	-9.4269	-4.4243	-5.5117	-5.5975	-3.6464	-6.5957	-4.9262	-0.4481	-0.1199	4.233	0.417	5.7735	9.4068	-7.2057	3.8419	-3.2339	-5.8957	1.0764	-4.4568	0.333	0.333	0.333	0.333	0.333	0.333	0.333	0.333	0.333	0.333	0.333	0.333	0.333	0.333	0.333	0.333	0.333	0.333	0.333	6.327	1.4336	3.8835	17	140	0.896088024556636	0	1
"141"	17	8	3	-4	-4	0	5	-1	1	1.533	-2.8299	-9.8258	-1.2909	-2.5901	-8.6108	-13.4631	-4.3884	-0.0979	10.0567	-1.3542	-7.7425	-6.9748	-2.2491	-1.7718	-1.2946	-0.55	-11.4572	-5.662	-3.9564	-4.148	0.4955	0.3789	0.2621	0.2925	0.5071	0.3826	0.2125	0.3668	0.518	0.2375	0.2038	0.3202	0.2089	0.3763	0.2142	0.2642	0.4626	0.3286	0.2851	6.3173	1.556	3.1002	17	141	0.427226599889677	0	1
"142"	17	52	3	-1	-1	0	6	-1	1	1.715	-4.3225	0.1888	0.3059	5.5817	-1.0013	-0.38	0.8027	-4.0034	4.9813	-6.6031	-3.6869	12.6489	3.9835	-4.456	-4.3517	-6.1297	-2.2443	-9.3301	-0.7747	-0.9992	0.2074	0.3764	0.2902	0.3297	0.4364	0.2185	0.3593	0.2502	0.4234	0.4963	0.3104	0.3904	0.271	0.3824	0.3202	0.2657	0.2947	0.2204	0.4906	6.3336	1.6507	3.3826	17	142	0.539413080617903	0	1
"143"	17	4	3	0	0	1	7	-1	1	2.281	-3.5015	3.0961	-2.3988	-1.3936	-10.6699	2.4015	-5.3202	-2.3959	-7.4289	-0.3169	7.8307	-0.587	-0.9868	6.5804	3.0254	-3.8296	-1.4747	7.9605	2.287	5.4494	0.333	0.333	0.333	0.333	0.333	0.333	0.333	0.333	0.333	0.333	0.333	0.333	0.333	0.333	0.333	0.333	0.333	0.333	0.333	6.327	1.623	3.915	17	143	0.824613943302251	0	1
"144"	17	26	3	1	1	0	5	-1	0	1.544	-1.3934	-3.9395	6.2364	-3.4123	-0.7777	-0.0773	-3.3991	8.7247	5.0068	5.443	1.683	-5.1731	0.234	-9.4777	5.8014	-5.0641	2.0637	6.1125	4.2148	6.2885	0.2727	0.5178	0.2542	0.3322	0.2413	0.5251	0.3003	0.2177	0.4736	0.2881	0.316	0.3701	0.2092	0.2612	0.3517	0.409	0.2665	0.2319	0.4963	6.3347	1.5836	3.1446	17	144	0.434376451602584	0	1
"145"	17	2	3	-2	-2	1	9	-1	1	2.927	0.6686	-0.414	-9.6367	-2.5526	-0.4362	2.4634	-6.7335	2.0674	0.4989	2.6905	0.273	9.1216	3.59	-2.1132	-9.087	-6.3488	-4.6257	-6.6698	-1.4076	-9.6721	0.333	0.333	0.333	0.333	0.333	0.333	0.333	0.333	0.333	0.333	0.333	0.333	0.333	0.333	0.333	0.333	0.333	0.333	0.333	6.327	1.4174	4.361	17	145	1.07397800770975	0	1
"146"	17	64	3	-4	-4	0	5	-1	1	1.09	-6.2735	-1.4609	-4.0397	8.569	-3.8294	-6.0465	-10.3792	4.2573	-4.1263	-7.0892	-13.3874	0.2504	-1.0263	-5.2571	-7.5212	-6.8883	-2.1217	-8.1601	-3.7968	-0.8785	0.2496	0.21	0.3691	0.2249	0.514	0.4625	0.351	0.2477	0.2842	0.4025	0.2323	0.5097	0.2738	0.3289	0.4238	0.2422	0.4102	0.2372	0.3631	6.3367	1.5777	2.6741	17	146	0.0861776962410524	0	1
"147"	17	57	3	-4	-4	1	4	-1	1	1.319	-8.7497	-2.7254	-10.4815	-6.7665	-4.1873	-6.2059	-8.9485	-2.8943	1.6995	-3.2731	3.7482	-1.3123	-6.3568	-11.2585	-8.7124	-2.8684	3.7169	-1.911	6.2701	-10.0983	0.333	0.333	0.333	0.333	0.333	0.333	0.333	0.333	0.333	0.333	0.333	0.333	0.333	0.333	0.333	0.333	0.333	0.333	0.333	6.327	1.6912	3.0201	17	147	0.276873873735177	0	1
"148"	17	10	3	-1	-1	0	8	1	0	2.432	1.833	0.5915	-1.5137	-3.7899	-7.4123	4.1243	4.1538	12.5544	-6.5811	-1.711	0.071	-2.9944	-1.8248	-3.9435	0.4153	2.7695	-8.3227	2.5331	-1.2471	-9.0395	0.205	0.2917	0.3977	0.3234	0.4133	0.2287	0.3468	0.2603	0.2138	0.4583	0.2916	0.2118	0.4288	0.5062	0.3155	0.3917	0.454	0.3439	0.2367	6.3192	1.4808	3.9161	17	148	0.888713964103921	1	0
"149"	17	7	3	4	4	1	8	1	1	2.334	8.5556	-0.2398	-4.2348	7.3105	1.3769	0.7565	10.0185	-2.2209	11.6917	3.4502	6.9586	3.1722	5.693	13.444	3.245	1.5102	3.0811	1.9632	-4.3165	9.9557	0.333	0.333	0.333	0.333	0.333	0.333	0.333	0.333	0.333	0.333	0.333	0.333	0.333	0.333	0.333	0.333	0.333	0.333	0.333	6.327	1.7166	4.0514	17	149	0.847583533864364	1	0
"150"	17	44	3	-2	-2	1	9	1	0	2.983	1.5936	-11.4058	0.84	3.4595	3.9464	-7.3664	-6.1882	0.186	-5.8394	-5.4086	4.0378	-6.2024	-2.5078	0.3079	2.7503	6.0065	2.9797	-6.9977	-6.3517	-6.7543	0.333	0.333	0.333	0.333	0.333	0.333	0.333	0.333	0.333	0.333	0.333	0.333	0.333	0.333	0.333	0.333	0.333	0.333	0.333	6.327	1.4346	4.417	17	150	1.09292950553261	1	0
"151"	17	66	3	-1	-1	0	10	1	0	3.228	1.3334	1.2537	-6.3534	2.251	3.0966	-3.8416	-2.0124	-8.9645	1.0585	-6.2017	6.5495	-6.2313	-7.1699	4.2322	-2.1604	-1.6881	-0.4046	-7.6933	3.0775	8.179	0.3235	0.2858	0.4717	0.2564	0.521	0.3672	0.4679	0.2015	0.332	0.3592	0.2185	0.354	0.3955	0.2135	0.3651	0.2573	0.4837	0.2494	0.2106	6.3338	1.4594	4.695	17	151	1.1718627504077	1	0
"152"	17	50	3	-4	-4	0	18	1	0	5.387	-3.7125	-6.6312	0.8843	-7.757	-8.2676	4.4266	-4.6468	-7.9929	0.3859	-12.4247	-6.8214	4.2271	3.3525	-4.9797	-10.092	-7.8685	-1.4092	0.5335	-2.3684	-6.8548	0.2006	0.2938	0.2573	0.3111	0.2579	0.4546	0.2748	0.2469	0.419	0.3639	0.2368	0.4707	0.2255	0.5025	0.3779	0.2635	0.2145	0.4301	0.5326	6.3339	1.4372	6.8209	17	152	1.6839886436984	1	0
"153"	17	40	3	1	1	0	14	1	1	4.498	-3.4205	4.1026	-11.624	7.8869	0.9591	-4.2039	-0.3202	7.8189	3.3556	3.0848	5.9419	6.3981	-4.6871	-0.2023	0.6246	-2.3694	1.7527	-0.3275	-3.8272	7.6871	0.2887	0.3757	0.403	0.4819	0.2913	0.2123	0.3593	0.3219	0.4292	0.2531	0.3241	0.2109	0.3072	0.5232	0.3823	0.2686	0.36	0.2991	0.2335	6.3253	1.511	6.0324	17	153	1.50363285353712	1	0
"154"	17	68	3	1	1	0	16	1	1	4.963	-1.0196	6.38	5.3904	1.7365	0.0056	1.8068	4.2771	-3.6462	-4.3238	-2.7867	-0.1639	0.4151	2.767	7.7381	-0.3708	-10.1658	-6.3258	8.4289	2.7001	8.7309	0.3239	0.3777	0.2546	0.3086	0.4515	0.2637	0.2195	0.3996	0.2661	0.2949	0.3394	0.2203	0.2945	0.2043	0.5124	0.3055	0.3949	0.482	0.412	6.3257	1.4515	6.4307	17	154	1.6020103966053	1	0
"155"	17	6	3	2	2	1	10	1	1	3.202	-0.2092	9.6114	12.0674	5.8667	-3.1959	-4.3721	-1.2108	5.9594	1.9939	4.8002	-1.4698	5.3777	-1.9189	0.4462	-2.6707	5.5746	-2.9227	-0.9738	10.6194	-2.3921	0.333	0.333	0.333	0.333	0.333	0.333	0.333	0.333	0.333	0.333	0.333	0.333	0.333	0.333	0.333	0.333	0.333	0.333	0.333	6.327	1.5991	4.819	17	155	1.16377561457452	1	0
"156"	17	48	3	2	2	1	16	1	1	5.196	0.0093	1.1094	6.5555	0.237	-4.5971	-2.4132	6.5865	15.5716	-2.5613	5.4897	3.6042	0.0762	9.8503	3.4902	-1.09	2.5681	-0.3132	0.0878	-3.9135	0.2315	0.333	0.333	0.333	0.333	0.333	0.333	0.333	0.333	0.333	0.333	0.333	0.333	0.333	0.333	0.333	0.333	0.333	0.333	0.333	6.327	1.604	6.8131	17	156	1.64788909880835	1	0
"157"	17	59	3	-1	-1	1	6	-1	1	1.916	-1.9678	7.6798	-4.1883	-5.0751	-11.7726	-1.3306	5.6258	4.1218	-9.9802	-1.3009	-1.5816	1.394	8.2289	-0.5567	0.6637	-2.6317	0.418	0.6525	-3.9501	-4.2503	0.333	0.333	0.333	0.333	0.333	0.333	0.333	0.333	0.333	0.333	0.333	0.333	0.333	0.333	0.333	0.333	0.333	0.333	0.333	6.327	1.6776	3.6001	17	157	0.650239679548669	0	1
"158"	17	51	3	-2	-2	0	11	-1	1	3.688	-3.4512	6.0257	1.1986	1.8768	-0.073	3.4303	-6.6066	-4.6863	-9.6193	-0.8835	-8.0293	-0.8773	-1.2705	7.3394	-2.5253	-2.2988	-5.1316	-5.5727	1.8786	-11.5124	0.2518	0.3084	0.2161	0.433	0.3946	0.3173	0.4456	0.4012	0.4357	0.2293	0.2707	0.3379	0.2226	0.267	0.2119	0.4344	0.5194	0.2197	0.4016	6.3183	1.4704	5.1721	17	158	1.30508430569435	0	1
"159"	17	53	3	0	0	0	9	1	0	2.936	-0.6952	6.0186	-3.5511	-1.1152	0.0402	-6.5782	11.1092	2.9313	4.0003	-2.569	-0.0881	3.1073	1.0857	-1.7129	1.4486	-2.3243	6.8712	-1.6182	-10.8101	-4.9785	0.5292	0.2703	0.3602	0.4886	0.2709	0.2995	0.2128	0.301	0.5129	0.2474	0.2765	0.2119	0.2908	0.2516	0.4781	0.3115	0.417	0.3227	0.2787	6.3318	1.4174	4.3534	17	159	1.07704811075227	1	0
"160"	17	65	3	-2	-2	0	7	-1	1	2.401	-2.8393	-5.4683	-9.2232	3.0278	-7.5762	5.1191	7.1347	-6.6733	-4.9654	-3.9736	-1.6789	0.2888	-8.7063	-7.6971	-5.0266	-3.3341	0.4946	1.226	3.1212	6.1378	0.3267	0.2903	0.2332	0.4371	0.5045	0.3309	0.304	0.371	0.3273	0.3722	0.2381	0.3636	0.2908	0.4655	0.3435	0.2273	0.2933	0.3516	0.2617	6.3326	1.4558	3.8522	17	160	0.875885317239116	0	1
"161"	17	22	3	-4	-4	0	12	1	0	3.614	-6.6152	0.1164	1.4039	1.5082	-1.9894	2.0191	-2.889	-7.8748	4.8848	-6.087	-4.5864	-1.2956	-13.0867	0.5819	-12.4385	-10.2444	-4.7741	-6.3123	-2.4236	-9.2012	0.342	0.3762	0.254	0.2809	0.4167	0.225	0.3897	0.4647	0.2155	0.2522	0.3185	0.5328	0.312	0.3946	0.2103	0.3103	0.5005	0.2248	0.2984	6.3191	1.5933	5.2148	17	161	1.28481519217004	1	0
"162"	17	34	3	2	2	1	9	1	1	2.962	-2.7679	13.3862	1.4519	4.8374	9.5202	2.0311	-1.3205	-3.4597	-5.9944	-4.1622	4.9679	1.3501	3.9076	7.9935	4.2536	6.6531	3.2502	-1.0114	-1.0149	-2.6325	0.333	0.333	0.333	0.333	0.333	0.333	0.333	0.333	0.333	0.333	0.333	0.333	0.333	0.333	0.333	0.333	0.333	0.333	0.333	6.327	1.5328	4.5127	17	162	1.08586471584561	1	0
"163"	17	3	3	-1	-1	1	15	1	0	4.964	-1.4025	-3.8085	8.082	-4.2433	6.9367	-5.0943	-2.5581	0.0819	-12.5958	-0.562	1.0325	-1.1216	5.0769	-7.4501	-1.6427	0.5226	4.6784	3.3468	-6.3228	-1.2486	0.333	0.333	0.333	0.333	0.333	0.333	0.333	0.333	0.333	0.333	0.333	0.333	0.333	0.333	0.333	0.333	0.333	0.333	0.333	6.327	1.466	6.4481	17	163	1.60221186734236	1	0
"164"	17	33	3	1	1	1	11	1	1	3.477	4.23	8.5046	10.0035	-1.1157	4.8531	-4.1393	-10.772	3.7569	3.8317	3.3293	3.4853	0.6958	3.341	0.5773	-1.7057	-7.2735	0.6487	3.3583	-3.7181	-1.3791	0.333	0.333	0.333	0.333	0.333	0.333	0.333	0.333	0.333	0.333	0.333	0.333	0.333	0.333	0.333	0.333	0.333	0.333	0.333	6.327	1.4345	4.9279	17	164	1.24616985302572	1	0
"165"	17	23	3	-2	-2	0	8	-1	1	2.608	-6.1427	-0.7149	-1.4511	-6.9356	5.4505	-0.8044	-3.8134	-3.209	-8.9073	6.1226	1.2895	0.8577	5.0733	-4.6095	0.7704	-1.8354	-10.691	-3.2031	3.2077	-10.3046	0.2838	0.4436	0.3196	0.2798	0.3217	0.4052	0.3296	0.2422	0.5122	0.2187	0.2737	0.4415	0.4969	0.2883	0.2192	0.348	0.2918	0.222	0.3793	6.3172	1.4636	4.0756	17	165	0.958583644064407	0	1
"166"	17	39	3	0	0	0	8	-1	1	2.501	-4.964	0.5965	7.1402	-0.2229	4.7235	-3.3862	-8.0801	-2.8984	-3.0376	-4.3455	2.0402	0.4128	6.5292	3.6881	5.6613	-5.2794	-0.7801	-5.2405	10.1025	-2.5845	0.2063	0.2326	0.4402	0.2082	0.2387	0.4411	0.4857	0.4061	0.2345	0.3275	0.4458	0.2923	0.2284	0.4732	0.2028	0.2896	0.5312	0.2679	0.3649	6.3171	1.4924	4.0018	17	166	0.916690651895482	0	1
"167"	17	35	3	4	4	1	7	1	1	2.213	3.5767	16.3754	-6.0068	2.6568	4.4121	5.8534	7.4142	10.79	0.1852	4.1425	2.6527	10.5856	-2.1141	1.1495	7.3428	4.9401	1.6888	-0.9545	6.7597	-0.3456	0.333	0.333	0.333	0.333	0.333	0.333	0.333	0.333	0.333	0.333	0.333	0.333	0.333	0.333	0.333	0.333	0.333	0.333	0.333	6.327	1.6662	3.8804	17	167	0.794349061068913	1	0
"168"	17	60	3	0	0	1	8	-1	0	2.459	-3.0672	1.8074	1.2753	0.7569	5.3684	7.1463	-6.5739	-6.212	-0.4079	-2.647	-0.6939	8.0766	2.0317	5.8949	-4.7394	-3.0755	-4.2541	-8.7624	3.2306	6.257	0.333	0.333	0.333	0.333	0.333	0.333	0.333	0.333	0.333	0.333	0.333	0.333	0.333	0.333	0.333	0.333	0.333	0.333	0.333	6.327	1.5305	3.9927	17	168	0.899754763234056	0	1
"169"	17	32	3	0	0	1	12	1	1	3.97	-0.0734	-7.7182	7.4578	-3.9822	-1.7133	-0.3248	-2.954	1.1738	1.6436	6.3564	-0.6053	5.178	3.729	-4.6905	-2.0395	0.9988	-1.9522	-1.2239	-10.8594	10.5203	0.333	0.333	0.333	0.333	0.333	0.333	0.333	0.333	0.333	0.333	0.333	0.333	0.333	0.333	0.333	0.333	0.333	0.333	0.333	6.327	1.6712	5.6538	17	169	1.3787660946991	1	0
"170"	17	47	3	1	1	1	17	-1	0	5.395	0.8082	-2.8577	-0.7626	7.3772	1.1925	-2.164	9.5763	-0.2522	-1.8209	0.4508	-0.6793	-9.623	2.1233	3.4122	-0.5599	-8.068	8.5058	6.7634	7.4772	-0.4497	0.333	0.333	0.333	0.333	0.333	0.333	0.333	0.333	0.333	0.333	0.333	0.333	0.333	0.333	0.333	0.333	0.333	0.333	0.333	6.327	1.6959	7.0959	17	170	1.6854725987101	0	1
"171"	17	5	3	1	1	1	11	1	1	3.601	3.0398	6.4284	-1.9093	3.1786	-1.4567	-3.2504	-3.7029	5.1251	-0.7974	8.7903	-0.9556	-2.2613	-5.3162	-2.1793	-10.2913	9.1067	6.232	6.041	0.1851	3.0177	0.333	0.333	0.333	0.333	0.333	0.333	0.333	0.333	0.333	0.333	0.333	0.333	0.333	0.333	0.333	0.333	0.333	0.333	0.333	6.327	1.562	5.168	17	171	1.28121158466674	1	0
"172"	17	58	3	-2	-2	1	15	1	0	4.881	-0.7576	2.3434	1.6314	4.1919	-3.7169	4.8042	-1.2362	-7.5752	-2.4416	0.1619	-0.8438	-7.3479	1.5708	-5.8456	-9.4646	-3.8091	9.4912	-8.5988	-7.4175	-5.7667	0.333	0.333	0.333	0.333	0.333	0.333	0.333	0.333	0.333	0.333	0.333	0.333	0.333	0.333	0.333	0.333	0.333	0.333	0.333	6.327	1.6353	6.5316	17	172	1.58535011690501	1	0
"173"	17	13	3	2	2	0	11	1	1	3.551	0.66	6.4094	-2.5603	-5.6761	9.17	5.1347	10.553	8.4393	-2.1651	3.6005	1.1134	-7.2269	-1.9038	4.5941	-2.3386	-1.5597	4.8117	6.784	-1.4137	3.0991	0.3987	0.2445	0.5126	0.3368	0.3024	0.4486	0.2593	0.2238	0.3249	0.2875	0.3528	0.2145	0.2607	0.4191	0.3564	0.2335	0.292	0.3443	0.5212	6.3336	1.6123	5.1855	17	173	1.26722925396095	1	0
"174"	17	28	3	4	4	0	8	1	1	2.759	0.1349	8.3267	2.4279	3.8583	4.0604	2.2912	6.1751	-1.9427	3.2288	5.5577	14.9212	13.1266	3.9292	2.1097	0.9223	6.1512	-6.8656	6.9031	-1.5909	7.3192	0.4095	0.4493	0.3182	0.2548	0.5017	0.2438	0.3193	0.2698	0.3846	0.325	0.3546	0.3013	0.2678	0.4437	0.2225	0.3253	0.2632	0.2223	0.4498	6.3267	1.6873	4.46	17	174	1.01486829523515	1	0
"175"	17	24	3	-1	-1	0	11	1	0	3.244	2.8417	-1.923	-4.9413	0.1922	7.4744	3.1895	5.3911	-3.4135	-5.6189	-9.6669	2.9489	-7.9697	-7.9969	-6.1185	1.312	-4.2897	4.9454	1.7493	0.7245	0.255	0.2848	0.2459	0.2053	0.3024	0.4512	0.419	0.3422	0.263	0.2071	0.3599	0.3095	0.3695	0.4135	0.4465	0.269	0.3775	0.2998	0.466	0.2913	6.3234	1.4428	4.6946	17	175	1.17680713625317	1	0
"176"	17	54	3	1	1	0	10	1	1	2.7	2.842	5.3474	1.2536	0.7572	-0.6571	-4.0188	3.3978	5.4721	3.6797	0.118	-3.2427	6.5788	-3.2223	-5.9199	9.5235	-9.4659	2.5051	2.5682	7.1655	-5.3195	0.2267	0.2533	0.2797	0.2003	0.2693	0.4258	0.3273	0.4227	0.2321	0.2572	0.4634	0.5219	0.4653	0.2859	0.427	0.2543	0.3587	0.3957	0.2615	6.3281	1.5128	4.2177	17	176	0.993251773010283	1	0
"177"	17	12	3	1	1	0	16	1	1	4.896	-2.5199	0.1389	4.2002	1.4292	-2.9651	4.6515	-5.1955	0.1014	0.5981	1.0156	-0.4883	14.062	2.9651	5.6094	-1.4282	8.0031	-8.2062	-0.1156	3.8637	-4.5352	0.4998	0.3225	0.2208	0.5201	0.2141	0.3119	0.2511	0.3967	0.2447	0.3428	0.3178	0.2662	0.4653	0.2664	0.23	0.2615	0.4126	0.5038	0.2768	6.325	1.6283	6.5297	17	177	1.58841854521003	1	0
"178"	17	14	3	4	4	0	16	1	1	5.072	0.5841	8.6106	6.6857	3.8967	6.4533	1.8696	-2.9313	7.5542	-0.3892	7.7347	4.4361	0.0419	12.8795	10.1751	4.8046	2.4521	5.3523	-10.4012	3.6175	5.4201	0.4981	0.211	0.3015	0.4621	0.2236	0.4449	0.254	0.3258	0.4068	0.2847	0.2529	0.2177	0.2589	0.5191	0.3275	0.4535	0.205	0.4085	0.2688	6.3243	1.6201	6.6894	17	178	1.62373521713492	1	0
"179"	17	46	3	0	0	1	11	1	0	3.655	3.1013	-5.0702	-12.143	5.777	-8.8453	-0.3166	-0.9854	6.2693	6.2413	3.8964	-0.3323	-1.2301	1.2977	5.8713	0.4215	-4.6861	1.7893	-2.9848	-0.8949	1.4066	0.333	0.333	0.333	0.333	0.333	0.333	0.333	0.333	0.333	0.333	0.333	0.333	0.333	0.333	0.333	0.333	0.333	0.333	0.333	6.327	1.6233	5.2888	17	179	1.29609609320174	1	0
"180"	17	16	3	-2	-2	1	14	-1	1	4.423	-0.6339	0.6431	4.8825	-4.6405	0.671	-8.521	-0.157	0.2585	-0.0489	-8.2614	7.97	1.3496	-9.2892	-2.6754	-3.7317	-9.5487	2.9406	0.8144	-7.8199	-4.157	0.333	0.333	0.333	0.333	0.333	0.333	0.333	0.333	0.333	0.333	0.333	0.333	0.333	0.333	0.333	0.333	0.333	0.333	0.333	6.327	1.5719	5.9902	17	180	1.48681819888619	0	1
"181"	17	55	3	2	2	0	14	1	1	4.271	-2.0308	11.058	1.7912	-5.2547	6.8484	-1.0511	-1.4976	0.8736	-5.6621	9.1732	3.5852	4.171	1.0395	6.2503	-1.8404	8.5782	3.0512	4.1177	1.7137	-6.1689	0.2604	0.4408	0.2353	0.2807	0.3594	0.4366	0.2411	0.2878	0.3326	0.3862	0.4652	0.2473	0.207	0.4477	0.247	0.3489	0.2786	0.3145	0.5059	6.3231	1.5547	5.8386	17	181	1.45184799185933	1	0
"182"	17	15	3	-4	-4	1	5	-1	1	1.624	-5.2907	2.2905	-10.4267	-7.0697	-4.7349	-7.6714	-3.4387	-9.6806	-3.9622	-8.8123	-4.814	6.8413	7.2045	-5.8905	0.3519	-7.8008	-4.359	-9.2495	-4.3456	-1.1113	0.333	0.333	0.333	0.333	0.333	0.333	0.333	0.333	0.333	0.333	0.333	0.333	0.333	0.333	0.333	0.333	0.333	0.333	0.333	6.327	1.6872	3.325	17	182	0.484892241739486	0	1
"183"	17	70	3	4	4	0	6	1	1	1.687	5.5747	1.7585	10.1631	6.379	5.7336	6.6739	4.7562	4.0895	2.5138	1.3011	4.43	-3.7665	11.3641	-0.2454	17.3689	-2.438	3.115	1.0764	-3.4725	2.6787	0.2049	0.3957	0.4709	0.2636	0.2263	0.3892	0.2483	0.5127	0.3871	0.3331	0.365	0.2217	0.3671	0.2896	0.3248	0.2424	0.3971	0.3537	0.3283	6.3218	1.5207	3.2211	17	183	0.522951803563831	1	0
"184"	17	21	3	4	4	1	9	1	1	2.795	5.6536	10.0437	13.9189	-2.048	7.1656	-0.2194	3.8882	3.2994	3.5653	2.0125	-2.3552	-1.7497	8.2607	3.6403	0.3001	8.8886	7.5417	5.3082	7.9648	-6.3591	0.333	0.333	0.333	0.333	0.333	0.333	0.333	0.333	0.333	0.333	0.333	0.333	0.333	0.333	0.333	0.333	0.333	0.333	0.333	6.327	1.6811	4.4787	17	184	1.02783210660706	1	0
"185"	17	30	3	-2	-2	1	13	-1	1	4.221	1.2267	-1.3458	3.5561	-3.5394	-8.8325	-2.7478	-2.0684	-4.4557	4.0815	-14.8128	-1.8722	-1.3517	-6.2955	-8.121	-0.9968	2.7175	2.8267	6.3567	-0.0262	-5.293	0.333	0.333	0.333	0.333	0.333	0.333	0.333	0.333	0.333	0.333	0.333	0.333	0.333	0.333	0.333	0.333	0.333	0.333	0.333	6.327	1.4973	5.7216	17	185	1.44007206680036	0	1
"186"	17	38	3	-1	-1	0	12	1	0	3.85	-4.0366	-2.5197	-7.9303	5.1712	1.8793	-0.7298	-3.1586	0.8235	-6.3018	6.8909	-3.8928	-2.3242	4.2549	-5.3825	-0.3005	-5.3149	1.4356	0.5689	-9.7088	10.0207	0.2814	0.2152	0.4953	0.282	0.4005	0.5169	0.3427	0.3079	0.2678	0.3878	0.2402	0.4802	0.2013	0.2692	0.2272	0.4995	0.2819	0.2123	0.4201	6.3296	1.7272	5.5842	17	186	1.34807314829969	1	0
"187"	17	56	3	4	4	0	11	1	1	3.769	-0.2982	6.8296	-9.64	1.5746	10.7446	0.4018	-0.6239	2.4384	4.3679	6.648	12.4006	6.3988	1.5481	6.5249	9.247	2.4968	6.197	6.6254	6.5063	-2.1473	0.4665	0.3203	0.3558	0.3109	0.4498	0.3008	0.4637	0.4282	0.2155	0.3972	0.2298	0.2018	0.2793	0.2484	0.3762	0.2117	0.4641	0.2107	0.3909	6.3216	1.5045	5.2864	17	187	1.326809714285	1	0
"188"	17	18	3	0	0	1	15	1	1	4.677	-1.3255	9.4914	-1.5334	-1.0418	-2.9994	-3.3945	5.4961	0.2015	-2.3538	9.4745	-9.1577	2.911	0.3931	0.6398	-0.8911	5.1485	-9.1499	3.2442	-2.3553	-1.3451	0.333	0.333	0.333	0.333	0.333	0.333	0.333	0.333	0.333	0.333	0.333	0.333	0.333	0.333	0.333	0.333	0.333	0.333	0.333	6.327	1.5896	6.2777	17	188	1.54265687874375	1	0
"189"	17	41	3	2	2	0	12	-1	0	3.645	-2.6736	-2.8372	8.7384	2.5898	4.9411	9.6914	12.0252	-1.2874	-1.1657	0.3352	-6.5023	-2.0825	8.1428	-0.1505	-0.6893	6.2443	1.855	-2.324	4.411	0.2693	0.3254	0.2736	0.3425	0.2086	0.4693	0.2288	0.4031	0.2004	0.446	0.3105	0.4323	0.2339	0.3201	0.3828	0.3233	0.2405	0.4981	0.422	0.2588	6.3201	1.6279	5.2792	17	189	1.29335636546062	0	1
"190"	17	27	3	2	2	0	5	1	1	1.35	5.9897	11.7742	-1.6408	1.4672	-2.9066	2.8924	5.8922	-2.6403	7.1231	-2.6558	8.5428	-2.3516	-2.6311	7.4853	5.813	2.3926	-5.8824	4.599	-3.8472	-0.8617	0.222	0.3372	0.2957	0.2617	0.3412	0.4933	0.3629	0.2165	0.4265	0.4871	0.3129	0.3446	0.3736	0.3423	0.2221	0.3043	0.2707	0.4828	0.2311	6.3284	1.4536	2.818	17	190	0.300104592450338	1	0
"191"	17	9	3	-2	-2	0	7	-1	1	2.166	-3.9896	5.9979	1.756	-0.2197	-3.0643	1.251	3.3106	-2.2788	-1.2441	-12.6898	-9.0143	2.5623	2.189	-4.1234	-6.8257	-1.9596	-8.0951	-6.6712	-0.3688	4.9159	0.2406	0.3361	0.4523	0.2744	0.2467	0.2157	0.4806	0.2414	0.5054	0.2502	0.341	0.5046	0.4623	0.2205	0.2693	0.2438	0.3276	0.3746	0.3441	6.3311	1.6127	3.8003	17	191	0.772882148578799	0	1
"192"	17	61	3	1	1	1	12	1	1	3.963	-1.2228	-2.4501	1.1124	10.3308	-9.2501	0.7903	6.4872	3.6907	-3.2234	2.8874	7.3721	-2.7066	0.7743	-4.7552	3.2246	4.6759	4.9361	1.2822	2.5392	-7.4462	0.333	0.333	0.333	0.333	0.333	0.333	0.333	0.333	0.333	0.333	0.333	0.333	0.333	0.333	0.333	0.333	0.333	0.333	0.333	6.327	1.6793	5.6635	17	192	1.3770013142083	1	0
"193"	17	19	3	1	1	1	7	-1	0	2.022	-3.4779	6.4524	-4.7779	-3.3396	3.6074	11.6274	-4.7829	-3.2622	-3.4372	0.9434	3.1782	0.5975	1.3731	-1.4906	3.4592	10.1556	5.5335	4.1518	-3.0453	-3.3973	0.333	0.333	0.333	0.333	0.333	0.333	0.333	0.333	0.333	0.333	0.333	0.333	0.333	0.333	0.333	0.333	0.333	0.333	0.333	6.327	1.6192	3.6564	17	193	0.70408712059828	0	1
"194"	17	11	3	0	0	0	11	1	1	3.661	-2.2455	1.7192	-2.7749	-1.9619	-4.1048	7.8503	2.798	8.955	1.8355	8.0812	-8.9728	-0.4579	-7.2776	-5.2364	-0.6649	4.0324	0.3629	-4.6017	3.0717	-1.0442	0.2964	0.3399	0.4081	0.5238	0.3791	0.2707	0.3707	0.2304	0.3901	0.2777	0.2248	0.5272	0.2629	0.2935	0.3196	0.207	0.5132	0.2001	0.2935	6.3286	1.4528	5.1283	17	194	1.2977363341381	1	0
"195"	17	20	3	2	2	1	5	1	1	1.479	4.2977	7.0667	7.0116	-2.3358	-2.6215	2.2206	-0.9373	-4.2599	-4.41	3.7237	0.392	6.7221	7.6856	7.9935	11.5521	-2.3621	-0.1375	-6.9467	3.9091	3.0196	0.333	0.333	0.333	0.333	0.333	0.333	0.333	0.333	0.333	0.333	0.333	0.333	0.333	0.333	0.333	0.333	0.333	0.333	0.333	6.327	1.5202	3.0129	17	195	0.391366183728663	1	0
"196"	17	63	3	4	4	1	9	1	1	2.955	2.1246	10.1395	5.5646	6.9468	-3.8344	-0.3954	10.2009	7.8624	3.2332	-1.9096	8.8226	4.5842	8.5688	-2.143	14.9384	2.2397	3.9546	2.6121	-2.4326	-0.0915	0.333	0.333	0.333	0.333	0.333	0.333	0.333	0.333	0.333	0.333	0.333	0.333	0.333	0.333	0.333	0.333	0.333	0.333	0.333	6.327	1.4646	4.4226	17	196	1.08349865085806	1	0
"197"	17	37	3	-2	-2	0	5	-1	1	1.551	-3.2451	-2.9365	-6.4891	1.1117	0.1002	-0.0377	-8.5485	0.713	-2.6759	2.6469	6.4013	-3.0173	0.9619	-8.4981	4.7985	2.5452	-4.8179	-9.1995	-11.3199	2.5422	0.3239	0.2121	0.3137	0.2561	0.4535	0.2411	0.3058	0.4476	0.4782	0.2664	0.3941	0.3014	0.2162	0.3686	0.4578	0.3681	0.206	0.2823	0.4342	6.3269	1.6813	3.2356	17	197	0.438899884194402	0	1
"198"	17	67	3	0	0	0	4	1	1	1.273	3.5868	4.5549	-1.9689	-0.1399	-6.5252	9.2365	-5.0586	-3.0031	-0.4485	-0.0665	3.4596	0.7324	2.6407	3.4945	-7.8913	11.0905	-2.7502	-0.0283	-4.377	-5.7307	0.2327	0.4373	0.3038	0.4829	0.3227	0.355	0.3824	0.2849	0.3217	0.2048	0.2624	0.2935	0.211	0.4553	0.2864	0.219	0.2715	0.5214	0.4776	6.3264	1.7173	2.9908	17	198	0.241376319575269	1	0
"199"	17	31	3	-1	-1	1	4	-1	1	1.188	-4.5227	-5.7374	4.7774	4.4202	-1.611	-3.0738	-8.2554	-1.5517	-6.6556	2.4953	-1.438	-10.4072	4.4503	-6.6827	-1.5674	-0.4343	7.3095	5.3101	-2.7422	4.3209	0.333	0.333	0.333	0.333	0.333	0.333	0.333	0.333	0.333	0.333	0.333	0.333	0.333	0.333	0.333	0.333	0.333	0.333	0.333	6.327	1.6982	2.8888	17	199	0.172271220940453	0	1
"200"	17	29	3	-4	-4	1	6	-1	1	1.777	-6.1861	-0.737	2.7584	-2.2614	-2.2024	-5.7131	1.1464	-12.431	-14.7542	-1.9656	-6.2408	-6.8396	2.5349	-1.5926	1.7467	-6.9139	-2.5389	-10.1774	-8.5521	0.7232	0.333	0.333	0.333	0.333	0.333	0.333	0.333	0.333	0.333	0.333	0.333	0.333	0.333	0.333	0.333	0.333	0.333	0.333	0.333	6.327	1.4518	3.2273	17	200	0.574926549172514	0	1
"201"	17	1	3	-4	-4	1	7	-1	1	2.2	-2.3456	-0.2979	-7.2728	-8.1501	2.6645	-6.9666	-5.7418	0.0297	0.468	-8.7846	-5.8294	-12.9883	-3.9233	2.9447	-0.7496	-15.9834	0.4751	-2.1162	-3.2475	-1.983	0.333	0.333	0.333	0.333	0.333	0.333	0.333	0.333	0.333	0.333	0.333	0.333	0.333	0.333	0.333	0.333	0.333	0.333	0.333	6.327	1.567	3.7677	17	201	0.78845736036427	0	1
"202"	17	43	3	-4	-4	1	8	-1	1	2.594	-3.4701	6.3052	-10.4283	-4.194	-12.888	-3.9965	-1.2946	-11.7817	-3.6437	-3.9768	-6.361	3.3254	-9.7759	2.7359	-7.1917	-5.6621	-6.015	1.8702	-2.1919	-1.5125	0.333	0.333	0.333	0.333	0.333	0.333	0.333	0.333	0.333	0.333	0.333	0.333	0.333	0.333	0.333	0.333	0.333	0.333	0.333	6.327	1.4794	4.078	17	202	0.953201085894252	0	1
"203"	17	62	3	2	2	1	8	1	1	2.381	1.2097	-0.8792	7.0397	7.3484	-0.961	6.0594	8.8123	8.6901	-7.8994	-3.5018	3.1271	2.0789	5.7138	4.7022	1.9848	5.1282	-3.9543	1.7405	-1.2003	-6.4865	0.333	0.333	0.333	0.333	0.333	0.333	0.333	0.333	0.333	0.333	0.333	0.333	0.333	0.333	0.333	0.333	0.333	0.333	0.333	6.327	1.601	3.9987	17	203	0.867520567504726	1	0
"204"	17	49	3	4	4	1	5	1	1	1.4	0.7189	8.4354	-2.4628	-0.7684	4.6974	10.6756	-4.4839	0.5694	5.4661	5.0792	5.3876	2.183	-2.9896	3.3616	10.2782	0.5528	5.5879	11.609	13.0445	3.8103	0.333	0.333	0.333	0.333	0.333	0.333	0.333	0.333	0.333	0.333	0.333	0.333	0.333	0.333	0.333	0.333	0.333	0.333	0.333	6.327	1.4867	2.901	17	204	0.336472236621213	1	0
"205"	17	17	3	-1	-1	1	8	-1	1	2.442	0.2628	-1.0989	3.6656	-3.6937	-3.3089	6.2898	-11.2139	-2.5435	-6.681	-5.4878	-0.3543	-6.3175	-6.9522	-0.4609	8.8567	-2.0965	5.03	0.1183	1.8612	4.4123	0.333	0.333	0.333	0.333	0.333	0.333	0.333	0.333	0.333	0.333	0.333	0.333	0.333	0.333	0.333	0.333	0.333	0.333	0.333	6.327	1.4666	3.9256	17	205	0.892817375688513	0	1
"206"	17	45	3	-1	-1	1	10	1	0	3.19	0.6871	-4.8938	6.3241	0.0145	9.0151	2.1258	-1.0158	-6.2145	-3.8094	-2.17	4.0609	-0.3991	-12.125	1.0934	-4.5356	-3.254	-0.6898	-1.7051	-6.9697	6.0952	0.333	0.333	0.333	0.333	0.333	0.333	0.333	0.333	0.333	0.333	0.333	0.333	0.333	0.333	0.333	0.333	0.333	0.333	0.333	6.327	1.5077	4.7078	17	206	1.16002091679675	1	0
"207"	17	25	3	0	0	0	6	1	0	1.632	4.9702	2.3588	8.2035	4.3898	1.1198	-4.2671	-0.3501	-1.5263	5.4838	-10.7522	2.4205	2.2749	6.9864	-1.3403	-3.7379	-8.906	-2.8681	-1.9237	-5.9626	1.7324	0.2098	0.2758	0.4479	0.2664	0.4137	0.2315	0.2963	0.3385	0.2946	0.4841	0.2366	0.4882	0.4474	0.2153	0.4723	0.2111	0.2465	0.3431	0.4061	6.3253	1.4987	3.1498	17	207	0.489806256541915	1	0
"208"	17	36	3	-4	-4	0	8	-1	1	2.216	-8.8348	2.2744	-8.2106	-8.2426	-9.3793	-4.9287	-6.9564	0.6344	6.1082	2.9189	-4.6591	-1.4142	-4.395	0.6565	-0.8808	-6.4362	-2.2669	-7.566	-14.8993	-3.0031	0.2638	0.2338	0.3622	0.2465	0.285	0.3294	0.4716	0.2739	0.5037	0.412	0.3097	0.3628	0.2359	0.2971	0.3258	0.4604	0.2325	0.399	0.324	6.3289	1.5468	3.767	17	208	0.795703768885037	0	1
"209"	17	42	3	4	4	0	8	1	1	2.32	8.4099	8.5663	1.1727	1.0142	4.2254	0.3898	8.0279	6.1694	-8.9275	3.9931	3.6083	8.7945	-0.3867	2.3008	-2.2043	12.5433	1.0084	9.2761	4.4812	6.2676	0.4837	0.2686	0.2087	0.3815	0.2064	0.3046	0.2229	0.4055	0.45	0.2157	0.2794	0.3465	0.3815	0.2981	0.3894	0.2628	0.5078	0.3187	0.4033	6.3351	1.6175	3.9371	17	209	0.841567185678219	1	0
"210"	17	69	3	2	2	0	12	1	1	3.749	-1.2991	6.3597	10.4716	0.8891	-2.6736	-0.952	2.589	-4.0072	5.5426	0.8593	2.5302	-4.0616	-2.2109	-6.5	9.9501	6.4906	9.4591	-1.9316	1.9041	6.0923	0.3254	0.2423	0.4069	0.2105	0.4102	0.354	0.2147	0.4149	0.278	0.3754	0.4937	0.2422	0.288	0.4276	0.3773	0.4658	0.3321	0.213	0.2615	6.3332	1.5923	5.3501	17	210	1.32148913775377	1	0
"211"	17	70	4	4	4	0	8	1	1	2.635	3.7609	6.7302	3.6362	-1.9125	6.121	3.3447	5.9161	10.6632	4.6014	-2.6035	2.9595	6.3964	7.285	8.2686	-2.0296	-5.2925	-5.7493	8.699	8.26	9.515	0.4631	0.2774	0.4744	0.2617	0.4099	0.4398	0.2098	0.2854	0.2119	0.4527	0.2123	0.2679	0.5164	0.2269	0.3658	0.2686	0.3343	0.3988	0.2541	6.3311	1.4757	4.1195	17	211	0.968883181993326	1	0
"212"	17	1	4	-4	-4	1	3	-1	1	0.967	-6.3516	-3.5072	-7.2752	-11.523	-7.8795	-3.1954	-8.1107	5.7048	1.7661	-7.2967	-4.2918	-5.6976	2.3253	-0.1596	-8.3902	-8.5547	-0.9724	-11.4809	1.1121	3.4587	0.333	0.333	0.333	0.333	0.333	0.333	0.333	0.333	0.333	0.333	0.333	0.333	0.333	0.333	0.333	0.333	0.333	0.333	0.333	6.327	1.4894	2.468	17	212	-0.0335567835288428	0	1
"213"	17	8	4	-4	-4	0	3	-1	1	0.827	-8.8984	-12.9609	-2.1901	-7.0218	1.0423	-5.5649	-6.2944	-10.9853	1.7062	-0.4353	-2.9596	8.315	-4.1422	-4.9406	-4.0594	-0.8269	-4.1635	1.715	-7.3962	-8.3023	0.3602	0.2083	0.3042	0.3549	0.2028	0.505	0.2605	0.5112	0.3741	0.261	0.3985	0.4863	0.2342	0.3792	0.302	0.2488	0.2973	0.4235	0.2237	6.3357	1.6757	2.5109	17	213	-0.189950583958446	0	1
"214"	17	15	4	-4	-4	1	4	-1	1	1.03	-6.1446	2.2794	-8.3602	2.1514	-10.3358	-10.7304	-4.3294	-1.7983	-13.6892	-6.4543	-5.0318	-5.3536	-3.3089	-2.0922	2.0439	-7.2166	-7.0005	-0.7772	6.0251	0.4522	0.333	0.333	0.333	0.333	0.333	0.333	0.333	0.333	0.333	0.333	0.333	0.333	0.333	0.333	0.333	0.333	0.333	0.333	0.333	6.327	1.6941	2.7309	17	214	0.0295588022415444	0	1
"215"	17	4	4	0	0	1	4	1	0	1.251	1.8954	5.9228	-2.3602	4.313	-2.5186	-2.8132	-2.5885	6.9499	2.0478	-6.0639	-6.4585	2.3626	1.6273	4.7002	-6.3445	-1.1754	-4.0715	-4.2427	-2.3209	12.3449	0.333	0.333	0.333	0.333	0.333	0.333	0.333	0.333	0.333	0.333	0.333	0.333	0.333	0.333	0.333	0.333	0.333	0.333	0.333	6.327	1.6391	2.9018	17	215	0.223943231484774	1	0
"216"	17	67	4	0	0	0	5	1	0	1.834	-0.6885	-10.6279	-5.655	-1.7147	9.2876	-1.2683	2.2931	5.0789	-6.6219	0.0388	-3.6302	2.3241	1.7632	-2.2907	6.0283	0.9527	8.279	-3.4481	3.4608	-3.383	0.3748	0.4331	0.3359	0.3732	0.337	0.2142	0.2894	0.2183	0.3703	0.2733	0.224	0.4722	0.2867	0.3718	0.4085	0.4845	0.2306	0.2661	0.3604	6.3244	1.4563	3.3014	17	216	0.606499373834273	1	0
"217"	17	16	4	-2	-2	1	9	-1	1	2.734	-1.2559	-8.0558	1.5506	5.1224	-0.5951	2.7307	-9.6078	6.0851	-7.1043	-3.4932	0.8254	-1.7384	-3.1519	-7.2968	-2.0942	-0.0248	1.0512	-7.9667	3.7794	-10.4549	0.333	0.333	0.333	0.333	0.333	0.333	0.333	0.333	0.333	0.333	0.333	0.333	0.333	0.333	0.333	0.333	0.333	0.333	0.333	6.327	1.5027	4.251	17	217	1.00576573830176	0	1
"218"	17	62	4	2	2	1	5	1	1	1.382	1.1193	9.2196	8.4555	3.7389	6.9748	-2.6552	-4.5885	4.6579	4.2491	0.1778	0.0658	0.8846	-6.3176	-2.9058	8.6885	-0.8505	6.2913	5.1652	2.8021	-7.165	0.333	0.333	0.333	0.333	0.333	0.333	0.333	0.333	0.333	0.333	0.333	0.333	0.333	0.333	0.333	0.333	0.333	0.333	0.333	6.327	1.692	3.0825	17	218	0.323531725345478	1	0
"219"	17	17	4	-1	-1	1	6	1	0	1.906	0.8428	5.2542	-3.0534	7.6873	1.0938	0.7869	-2.5615	-4.4909	9.7785	0.3087	-7.5212	1.0165	-5.1115	-3.3975	1.2366	-1.3302	-11.9615	-0.6432	-1.9994	-6.2433	0.333	0.333	0.333	0.333	0.333	0.333	0.333	0.333	0.333	0.333	0.333	0.333	0.333	0.333	0.333	0.333	0.333	0.333	0.333	6.327	1.627	3.5404	17	219	0.64500680523201	1	0
"220"	17	46	4	0	0	1	10	1	1	3.252	-0.0723	-8.3552	-0.8861	-6.8565	-0.7497	7.1299	-4.8503	-1.3289	-4.2055	-1.54	8.3614	3.1264	-8.1454	3.8496	2.8087	-2.183	6.8475	5.2461	0.8972	0.7518	0.333	0.333	0.333	0.333	0.333	0.333	0.333	0.333	0.333	0.333	0.333	0.333	0.333	0.333	0.333	0.333	0.333	0.333	0.333	6.327	1.7033	4.969	17	220	1.17927019168556	1	0
"221"	17	28	4	4	4	0	6	1	1	2.153	2.5766	4.7088	4.5325	4.9724	3.0479	-6.4008	15.8348	3.0159	2.6682	3.5141	5.5549	4.1901	10.1891	1.7305	-2.0755	12.9832	1.5696	-0.1487	6.5962	1.2068	0.2931	0.468	0.5068	0.4473	0.2876	0.3475	0.5098	0.2037	0.4085	0.2009	0.2757	0.2117	0.2828	0.2376	0.2951	0.2408	0.3628	0.2301	0.5135	6.3233	1.6979	3.8543	17	221	0.766862218382226	1	0
"222"	17	50	4	-4	-4	0	6	-1	1	2.046	-4.1186	-2.615	-3.6437	5.4841	-8.5473	-10.8108	-3.8021	2.1601	0.9651	-5.0394	-11.6367	-9.8578	-0.9698	-7.3602	4.5184	-4.4749	-9.3646	-1.0881	-1.0949	-9.3639	0.453	0.2727	0.4564	0.4061	0.2388	0.3317	0.283	0.451	0.278	0.3032	0.2457	0.357	0.3896	0.4721	0.2096	0.2864	0.3348	0.235	0.3275	6.3316	1.6508	3.6964	17	222	0.715886667529435	0	1
"223"	17	40	4	1	1	0	14	-1	0	4.228	3.3361	0.8336	0.9093	3.2708	-10.5078	7.2415	-0.2924	3.6919	2.6341	1.5551	-9.2571	4.3077	1.3055	4.084	9.2149	-7.9638	1.2547	-1.2498	3.8351	0.2612	0.4882	0.2107	0.4505	0.2151	0.4492	0.2093	0.2422	0.3343	0.3759	0.3186	0.3582	0.2249	0.3441	0.278	0.5055	0.2005	0.4024	0.3707	0.3449	6.323	1.6144	5.8453	17	223	1.44172906800799	0	1
"224"	17	37	4	-2	-2	0	11	1	0	3.282	0.7884	1.6888	4.4873	6.2526	-4.2729	1.1239	-3.8711	3.2585	-10.6985	5.369	-3.8436	-5.8808	-7.1114	-5.5245	0.4716	-3.5994	-6.3685	-2.799	-10.911	-0.138	0.4294	0.2992	0.4509	0.3867	0.2284	0.3838	0.2437	0.3639	0.2746	0.2053	0.3091	0.4886	0.3378	0.223	0.4962	0.3851	0.2707	0.229	0.3196	6.3249	1.6449	4.9491	17	224	1.1884529926679	1	0
"225"	17	20	4	2	2	1	12	1	1	3.699	1.3932	12.1497	-6.4504	1.1541	-5.6412	1.2423	4.4727	2.6783	-4.4436	-3.9795	4.6551	9.0431	3.8842	-4.1914	2.7081	7.312	5.3105	1.7886	3.4034	2.1225	0.333	0.333	0.333	0.333	0.333	0.333	0.333	0.333	0.333	0.333	0.333	0.333	0.333	0.333	0.333	0.333	0.333	0.333	0.333	6.327	1.7062	5.4161	17	225	1.30806251285032	1	0
"226"	17	65	4	-2	-2	0	14	-1	1	4.323	-1.2628	-3.6189	-4.8617	0.5984	2.7314	6.837	-7.6023	-5.0555	-3.952	5.0176	-2.1585	-3.9842	-0.6244	-6.6541	4.6254	-3.0695	-9.7228	5.3729	-11.176	-1.0901	0.2647	0.3273	0.2716	0.3574	0.4557	0.3661	0.2817	0.2287	0.3154	0.46	0.2644	0.3403	0.2386	0.3756	0.3151	0.4035	0.212	0.4056	0.4376	6.3213	1.4798	5.8236	17	226	1.46394960568549	0	1
"227"	17	69	4	2	2	0	12	-1	0	4.022	0.7197	8.8195	2.3259	5.1984	-3.3462	7.8214	1.3743	-1.1464	-1.8586	-9.7401	1.6766	9.3761	-5.0616	6.797	2.8758	-2.7583	8.2911	2.858	1.7259	4.5947	0.3008	0.2267	0.2553	0.3375	0.3634	0.457	0.2665	0.4217	0.5256	0.3842	0.2771	0.2461	0.2838	0.2107	0.3176	0.3691	0.2064	0.4211	0.4495	6.3201	1.6785	5.7063	17	227	1.39177929135046	0	1
"228"	17	26	4	1	1	0	11	-1	0	3.469	-3.7634	6.6132	-6.9944	6.1171	3.1152	-0.8085	1.1706	-5.8194	0.9028	0.0384	-1.3996	5.5177	-2.5086	0.094	-1.72	5.6128	9.159	9.8133	0.4336	-7.2561	0.2152	0.4026	0.2967	0.2696	0.2232	0.5142	0.2538	0.2253	0.2643	0.5056	0.3632	0.2448	0.4095	0.4802	0.2703	0.4912	0.4385	0.2005	0.2643	6.3331	1.6187	5.1029	17	228	1.24386636798761	0	1
"229"	17	27	4	2	2	0	14	1	1	4.238	2.1038	4.8825	-7.882	5.9574	4.9376	7.0486	0.0459	-0.6005	2.2008	1.5531	-4.6366	-4.3	6.709	3.3742	9.0984	10.1871	5.789	-6.7082	0.3739	1.3227	0.2443	0.314	0.3475	0.2849	0.3191	0.2089	0.2462	0.5166	0.4056	0.2704	0.2094	0.2432	0.4245	0.2977	0.4351	0.3113	0.2597	0.4704	0.5131	6.3219	1.7185	5.9724	17	229	1.44409145984611	1	0
"230"	17	49	4	4	4	1	15	1	1	4.869	5.5921	-2.7438	1.1152	9.2011	0.0717	1.4114	12.2913	3.5558	11.2223	2.0969	2.875	-3.2301	-2.7108	6.6742	3.9266	1.6036	11.2857	6.3993	11.211	-0.5337	0.333	0.333	0.333	0.333	0.333	0.333	0.333	0.333	0.333	0.333	0.333	0.333	0.333	0.333	0.333	0.333	0.333	0.333	0.333	6.327	1.4809	6.3533	17	230	1.58288857720056	1	0
"231"	17	11	4	0	0	0	9	1	1	2.869	1.2045	-1.1312	6.4227	-1.6339	2.4271	-7.7322	0.7829	-7.4274	1.1662	5.3381	8.7476	-0.6887	8.3941	6.2644	-3.6708	-4.6979	-5.3768	-3.3003	-3.9248	-0.0563	0.2258	0.289	0.2134	0.2793	0.5002	0.2761	0.4636	0.245	0.4167	0.331	0.2581	0.5169	0.3508	0.2094	0.3794	0.4443	0.269	0.3463	0.3198	6.3341	1.6582	4.536	17	231	1.05396353699923	1	0
"232"	17	51	4	-2	-2	0	20	1	0	6.802	-4.8539	6.7127	-8.0649	-6.2355	-9.0923	3.0558	2.3394	-1.1845	-0.0977	-4.442	-9.2913	0.7151	3.743	2.4328	-11.535	1.9359	-4.4217	-0.8164	1.1476	-3.2611	0.2876	0.2076	0.4177	0.3621	0.219	0.3075	0.2044	0.2907	0.3912	0.5001	0.417	0.2046	0.3911	0.2062	0.3382	0.4425	0.5282	0.2797	0.3239	6.3191	1.5681	8.3696	17	232	1.917216686585	1	0
"233"	17	53	4	0	0	0	11	-1	1	3.694	-3.6659	-5.7391	5.7338	1.0059	5.7889	-0.448	-0.7299	-7.7228	2.1156	-0.7868	-9.6381	-3.8569	0.4709	-3.0968	3.8154	-2.237	10.2322	1.7035	-0.8734	6.4028	0.238	0.3142	0.4109	0.2833	0.4373	0.5067	0.3623	0.3048	0.2177	0.3784	0.3007	0.2394	0.2048	0.459	0.2727	0.3488	0.3898	0.3452	0.3168	6.3308	1.5633	5.2782	17	233	1.30670988177705	0	1
"234"	17	56	4	4	4	0	9	1	1	3.243	4.5969	-2.095	7.8481	8.4463	4.8695	-4.5755	5.3443	9.6079	-2.4778	8.2807	10.9277	8.7059	3.5255	3.1442	4.0798	4.024	7.6591	1.5704	2.3751	-7.2288	0.2872	0.4945	0.2091	0.5163	0.3179	0.5246	0.2443	0.4212	0.3147	0.2392	0.2984	0.4898	0.2241	0.2501	0.3293	0.2263	0.3513	0.2088	0.3772	6.3242	1.6973	4.9601	17	234	1.17649882732518	1	0
"235"	17	52	4	-1	-1	0	13	1	0	4.166	-3.5666	-4.2368	-10.8013	-1.2449	-4.0137	7.4833	-0.5819	-1.8311	-2.6654	-0.4744	1.4331	0.6331	2.458	8.5681	-4.8164	0.5779	-0.3482	5.2381	-11.1357	0.3508	0.4703	0.2784	0.2439	0.4097	0.4521	0.2108	0.394	0.213	0.2735	0.2996	0.4582	0.2026	0.4215	0.266	0.3597	0.2543	0.4223	0.4634	0.2419	6.3353	1.5535	5.7337	17	235	1.42695634283878	1	0
"236"	17	13	4	2	2	0	10	1	1	2.796	5.8393	2.5983	5.4391	8.8148	-2.3025	4.8291	2.4652	5.2001	-3.6037	-3.4046	-8.3236	9.6822	-1.9869	-4.4663	-0.8796	-1.038	6.886	6.3023	3.579	2.7815	0.5169	0.2494	0.3217	0.2611	0.4011	0.2468	0.2894	0.2354	0.2638	0.3075	0.4344	0.3479	0.2542	0.3883	0.5262	0.3616	0.3073	0.2435	0.3696	6.3263	1.4196	4.2303	17	236	1.02818982437156	1	0
"237"	17	35	4	4	4	1	9	1	1	2.884	-0.4797	2.8563	14.933	5.1239	-4.493	1.8858	8.9792	12.0163	5.2885	10.0254	3.978	2.5925	0.6817	4.6271	6.2036	3.2957	-0.6206	-6.1381	4.3625	5.4966	0.333	0.333	0.333	0.333	0.333	0.333	0.333	0.333	0.333	0.333	0.333	0.333	0.333	0.333	0.333	0.333	0.333	0.333	0.333	6.327	1.5095	4.4012	17	237	1.0591782194227	1	0
"238"	17	60	4	0	0	1	11	1	1	3.585	-0.0213	-3.5596	0.9454	4.2723	7.925	3.8187	6.7065	4.887	-5.5844	-2.2221	0.1175	-0.0462	1.1095	-1.4264	-9.3007	-3.172	8.1678	0.3411	-3.5896	-9.1048	0.333	0.333	0.333	0.333	0.333	0.333	0.333	0.333	0.333	0.333	0.333	0.333	0.333	0.333	0.333	0.333	0.333	0.333	0.333	6.327	1.6679	5.2528	17	238	1.27675847405158	1	0
"239"	17	36	4	-4	-4	0	11	-1	1	3.525	-0.1807	-0.808	1.9774	-6.4749	-0.6852	2.1623	-1.5891	-12.3238	-10.7889	-2.9955	-4.6002	-9.5941	-1.453	-3.0658	-2.9679	-10.2902	-10.7641	-1.8944	4.8853	-7.463	0.2481	0.4376	0.3393	0.2582	0.3203	0.4092	0.2645	0.3699	0.2806	0.4224	0.2227	0.4111	0.2291	0.3676	0.2007	0.4784	0.4013	0.2671	0.3966	6.3248	1.5182	5.0424	17	239	1.25988043626423	0	1
"240"	17	5	4	1	1	1	17	1	1	5.615	5.1734	-6.0221	-4.7304	2.7019	3.3862	4.0814	3.9528	-5.4811	-1.7658	-2.2723	4.7024	1.0009	-10.4638	2.5135	5.8865	-1.2533	0.353	8.9288	3.287	7.3721	0.333	0.333	0.333	0.333	0.333	0.333	0.333	0.333	0.333	0.333	0.333	0.333	0.333	0.333	0.333	0.333	0.333	0.333	0.333	6.327	1.4607	7.0824	17	240	1.72544158819041	1	0
"241"	17	29	4	-4	-4	1	9	-1	1	2.751	-0.0393	4.3911	-4.0909	-11.2314	-15.4406	-5.4082	1.519	-7.2019	-5.523	0.9856	0.6666	-3.031	-3.4917	-1.0075	-4.0193	-11.6318	-0.4975	-1.6782	-9.5224	-2.4659	0.333	0.333	0.333	0.333	0.333	0.333	0.333	0.333	0.333	0.333	0.333	0.333	0.333	0.333	0.333	0.333	0.333	0.333	0.333	6.327	1.4702	4.2184	17	241	1.01196448194244	0	1
"242"	17	9	4	-2	-2	0	9	1	0	3.028	-5.4517	0.3442	1.0883	3.4128	4.0126	-0.4222	-2.7549	-8.7841	-2.6	-0.2875	-12.1091	0.583	-14.1571	-3.1275	3.7851	-3.1712	1.5491	2.6485	0.2746	-3.2675	0.3945	0.2865	0.3375	0.2438	0.4604	0.4212	0.3294	0.4278	0.2245	0.3898	0.2496	0.3448	0.2671	0.3799	0.4059	0.2026	0.3896	0.2521	0.3237	6.3305	1.4824	4.5285	17	242	1.1079023355752	1	0
"243"	17	66	4	-1	-1	0	14	1	0	4.659	3.9459	-9.2617	7.7839	-2.3287	-0.9735	11.026	-8.2383	0.0649	3.1475	0.5109	-4.0839	0.1146	-1.7053	-7.5395	-0.214	-1.5549	-0.2691	-0.5354	-5.2303	-5.853	0.5099	0.3329	0.3751	0.2891	0.2451	0.3844	0.275	0.4007	0.4453	0.3179	0.3899	0.2393	0.4352	0.2816	0.307	0.2418	0.3533	0.2678	0.2427	6.3341	1.6814	6.3594	17	243	1.53880083283466	1	0
"244"	17	18	4	0	0	1	7	-1	1	2.327	-2.0608	3.0889	11.7436	-1.6105	-6.4529	-6.82	-0.9267	5.3882	3.1168	-1.7642	0.6664	-2.151	-7.8473	-4.8077	-1.8792	1.903	-0.8119	5.1561	6.9436	-0.3046	0.333	0.333	0.333	0.333	0.333	0.333	0.333	0.333	0.333	0.333	0.333	0.333	0.333	0.333	0.333	0.333	0.333	0.333	0.333	6.327	1.5472	3.8944	17	244	0.844579884320155	0	1
"245"	17	43	4	-4	-4	1	11	-1	1	3.37	0.7009	-5.4747	-3.1889	4.7566	-8.5806	-1.601	0.5061	-9.7955	-3.2948	-2.6476	-12.803	-0.631	-8.4407	-6.4261	-4.5173	-8.7936	0.5829	4.0596	-12.623	-0.8345	0.333	0.333	0.333	0.333	0.333	0.333	0.333	0.333	0.333	0.333	0.333	0.333	0.333	0.333	0.333	0.333	0.333	0.333	0.333	6.327	1.5987	4.9877	17	245	1.21491274436427	0	1
"246"	17	33	4	1	1	1	8	1	1	2.624	-3.3893	2.8335	-0.0915	8.4536	-5.2212	0.6169	-0.1958	-0.3874	-5.7813	2.8812	4.8369	-5.3531	-8.4434	4.909	8.2964	4.6509	0.0701	7.4857	6.0941	-3.4107	0.333	0.333	0.333	0.333	0.333	0.333	0.333	0.333	0.333	0.333	0.333	0.333	0.333	0.333	0.333	0.333	0.333	0.333	0.333	6.327	1.671	4.308	17	246	0.964699871081843	1	0
"247"	17	23	4	-2	-2	0	17	-1	1	5.723	-0.0782	4.7761	-3.8317	-5.3632	-4.7559	0.1075	-4.4108	0.1716	-1.9796	-2.656	2.8056	-10.1492	-4.3135	8.0899	-10.5332	-0.0277	5.4844	-5.7369	1.5311	-7.2975	0.3087	0.4315	0.2167	0.4157	0.4573	0.3844	0.4543	0.4226	0.2364	0.3478	0.2425	0.3008	0.3501	0.2587	0.232	0.5258	0.2894	0.2069	0.2469	6.3284	1.6676	7.407	17	247	1.74449314342697	0	1
"248"	17	58	4	-2	-2	1	9	1	0	2.838	1.3448	-1.9894	6.8634	-12.511	4.9111	-3.1062	-0.2304	-0.3099	-3.0703	-11.4047	1.0093	-7.2355	-2.9519	3.5558	-4.4698	2.5682	-6.8708	-3.8535	-0.6141	-2.021	0.333	0.333	0.333	0.333	0.333	0.333	0.333	0.333	0.333	0.333	0.333	0.333	0.333	0.333	0.333	0.333	0.333	0.333	0.333	6.327	1.6611	4.5055	17	248	1.04309957873785	1	0
"249"	17	6	4	2	2	1	8	1	1	2.493	2.3409	8.554	1.0946	-1.1394	3.8921	10.2432	-4.621	5.5766	-1.8983	-8.6767	0.1709	6.9156	0.7207	1.0396	7.0927	1.5781	6.4156	8.9136	-1.4048	-4.8335	0.333	0.333	0.333	0.333	0.333	0.333	0.333	0.333	0.333	0.333	0.333	0.333	0.333	0.333	0.333	0.333	0.333	0.333	0.333	6.327	1.4158	3.9105	17	249	0.913486804541421	1	0
"250"	17	22	4	-4	-4	0	10	-1	1	3.025	-2.2602	-1.131	-10.825	0.5087	-2.3765	0.3248	1.4287	-9.8855	-15.0007	-6.1507	6.2638	-5.1009	-5.433	-0.0523	-7.8481	-4.5717	-3.218	-3.0293	-3.6925	-9.9343	0.2219	0.3242	0.2212	0.298	0.3478	0.2262	0.3099	0.2226	0.4999	0.3542	0.508	0.4812	0.4254	0.2633	0.2915	0.2401	0.3	0.5049	0.291	6.3314	1.6588	4.6924	17	250	1.1069110914828	0	1
"251"	17	30	4	-2	-2	1	12	-1	1	3.82	-0.1744	-8.5191	-6.8665	-2.4819	-7.8009	2.4114	0.806	-2.994	-4.9446	-1.3261	-5.3797	-4.6308	11.7019	-1.1255	-3.4947	-2.058	2.651	3.9809	-1.5431	-9.9344	0.333	0.333	0.333	0.333	0.333	0.333	0.333	0.333	0.333	0.333	0.333	0.333	0.333	0.333	0.333	0.333	0.333	0.333	0.333	6.327	1.5917	5.4212	17	251	1.34025042261848	0	1
"252"	17	34	4	2	2	1	13	1	1	4.242	-0.5954	1.5058	7.8068	-0.9536	7.0726	5.1897	10.5303	1.4345	-7.155	2.6751	-2.9058	5.0356	-7.089	0.743	3.1191	-0.0914	-1.856	4.0873	10.4428	0.4771	0.333	0.333	0.333	0.333	0.333	0.333	0.333	0.333	0.333	0.333	0.333	0.333	0.333	0.333	0.333	0.333	0.333	0.333	0.333	6.327	1.4805	5.7424	17	252	1.44503485614249	1	0
"253"	17	2	4	-2	-2	1	13	-1	1	4.19	1.2729	-5.8661	-5.9201	-6.778	0.1055	4.4485	1.7811	1.4542	1.7439	-2.1864	-7.4661	-12.5567	5.5419	-0.5764	4.0167	-0.7753	-5.1833	2.5202	-6.294	-9.5293	0.333	0.333	0.333	0.333	0.333	0.333	0.333	0.333	0.333	0.333	0.333	0.333	0.333	0.333	0.333	0.333	0.333	0.333	0.333	6.327	1.4336	5.6406	17	253	1.43270073393405	0	1
"254"	17	21	4	4	4	1	9	1	1	2.821	-0.0703	3.539	2.5831	-5.9178	-0.3366	10.8296	12.4834	3.1428	3.496	-2.283	-1.231	-0.0601	12.6733	6.5411	5.93	4.2673	6.6139	-0.2334	9.9316	6.4498	0.333	0.333	0.333	0.333	0.333	0.333	0.333	0.333	0.333	0.333	0.333	0.333	0.333	0.333	0.333	0.333	0.333	0.333	0.333	6.327	1.6636	4.5048	17	254	1.03709143201986	1	0
"255"	17	63	4	4	4	1	10	1	1	3.091	0.6957	5.678	3.0516	9.937	6.6325	11.263	12.3842	8.3292	10.1106	3.3194	2.9496	-0.1916	-3.6213	-1.2092	3.0788	-4.7781	1.2421	4.9853	7.1106	-0.7233	0.333	0.333	0.333	0.333	0.333	0.333	0.333	0.333	0.333	0.333	0.333	0.333	0.333	0.333	0.333	0.333	0.333	0.333	0.333	6.327	1.7084	4.8089	17	255	1.12849466314998	1	0
"256"	17	32	4	0	0	1	6	1	1	1.802	4.6046	-2.2955	1.3544	0.0116	3.4778	-3.436	-2.4922	1.4969	1.1294	10.3959	-3.1237	4.2645	-14.1839	2.1702	1.7854	-6.2238	1.4513	1.7839	1.6203	-2.7962	0.333	0.333	0.333	0.333	0.333	0.333	0.333	0.333	0.333	0.333	0.333	0.333	0.333	0.333	0.333	0.333	0.333	0.333	0.333	6.327	1.5511	3.369	17	256	0.588897159186146	1	0
"257"	17	64	4	-4	-4	0	3	-1	1	1.141	-2.6673	-0.3332	-13.0598	-0.1474	1.1735	-10.9734	-3.5688	-3.7835	-8.2239	-9.0063	-6.3354	-3.4512	-5.4634	-2.6519	-4.9091	-10.9445	-4.419	7.5918	3.538	-3.1677	0.5005	0.2984	0.3777	0.4741	0.3663	0.4023	0.3613	0.2122	0.2475	0.5019	0.2518	0.3165	0.2048	0.4392	0.2006	0.2931	0.2073	0.435	0.2351	6.3257	1.6972	2.8417	17	257	0.131905070879939	0	1
"258"	17	48	4	2	2	1	4	1	1	1.047	4.7889	3.0833	-6.7737	-3.9567	-4.4736	-5.0175	0.1008	2.3453	8.326	1.924	0.3586	3.9632	0.6007	2.8846	9.4107	6.1091	6.7365	2.864	10.0684	-4.8861	0.333	0.333	0.333	0.333	0.333	0.333	0.333	0.333	0.333	0.333	0.333	0.333	0.333	0.333	0.333	0.333	0.333	0.333	0.333	6.327	1.4822	2.5308	17	258	0.0459289318883997	1	0
"259"	17	12	4	1	1	0	3	1	1	0.78	4.4695	2.3166	-8.0752	-3.7294	13.4372	5.1787	0.764	-4.2315	0.2562	-3.4822	6.6867	-2.4014	2.3963	1.1334	4.0373	-6.8887	5.1365	1.2303	-0.8346	1.4227	0.2523	0.3539	0.2887	0.3806	0.3045	0.4612	0.3657	0.4646	0.2384	0.3238	0.2824	0.4149	0.2764	0.3794	0.2666	0.3497	0.2814	0.4329	0.2124	6.3299	1.6187	2.3978	17	259	-0.2484613592985	1	0
"260"	17	3	4	-1	-1	1	5	1	0	1.512	3.8332	-7.8714	2.9837	0.3166	-4.5453	0.3096	0.2422	-6.6766	-11.6479	-6.1624	-2.3629	5.3065	2.5138	2.395	1.4145	3.9409	-6.7603	4.0334	-3.7377	3.6765	0.333	0.333	0.333	0.333	0.333	0.333	0.333	0.333	0.333	0.333	0.333	0.333	0.333	0.333	0.333	0.333	0.333	0.333	0.333	6.327	1.7249	3.2458	17	260	0.413433277757341	1	0
"261"	17	57	4	-4	-4	1	6	-1	1	1.751	-8.5441	3.6217	-0.4817	-8.3864	-1.4518	-12.2022	-5.5935	2.6074	-8.6	-3.7814	4.3387	-5.9072	-8.4841	6.1393	-6.18	-5.5008	-8.2502	-5.2504	-1.3565	-5.3425	0.333	0.333	0.333	0.333	0.333	0.333	0.333	0.333	0.333	0.333	0.333	0.333	0.333	0.333	0.333	0.333	0.333	0.333	0.333	6.327	1.6638	3.4188	17	261	0.560187053303715	0	1
"262"	17	54	4	1	1	0	4	1	1	1.418	2.2351	4.1185	3.8688	0.8904	0.8347	3.2931	12.0027	2.7911	-4.1642	-6.8882	5.1144	-7.0797	-2.6375	6.0672	-4.3526	1.0154	3.5193	8.1074	-4.5301	-2.9324	0.3732	0.4042	0.2702	0.4685	0.3326	0.267	0.4308	0.2936	0.2325	0.3647	0.3396	0.2619	0.3037	0.2093	0.5004	0.2755	0.461	0.2412	0.2993	6.3291	1.6462	3.0686	17	262	0.349247428109936	1	0
"263"	17	31	4	-1	-1	1	6	1	0	1.774	3.404	4.8988	-2.5213	-1.6976	-1.5372	-2.3959	5.7458	6.4048	-9.1046	2.2815	-5.0492	-4.612	-4.5078	-12.5324	-4.9006	-1.1426	5.0538	-0.9884	1.444	2.5583	0.333	0.333	0.333	0.333	0.333	0.333	0.333	0.333	0.333	0.333	0.333	0.333	0.333	0.333	0.333	0.333	0.333	0.333	0.333	6.327	1.431	3.2076	17	263	0.573236883887388	1	0
"264"	17	55	4	2	2	0	10	1	1	3.203	5.5289	2.6524	0.1437	3.8572	-5.4779	9.8916	0.7287	5.9736	9.8839	0.8247	5.9417	3.5199	8.4228	-2.4609	-5.3723	2.0351	-8.6518	0.0327	0.4802	2.7233	0.4001	0.3512	0.2244	0.4951	0.3933	0.3619	0.282	0.2568	0.3013	0.3833	0.2617	0.2309	0.4018	0.2544	0.3973	0.2061	0.5092	0.3736	0.2501	6.3344	1.4531	4.6706	17	264	1.16408787062702	1	0
"265"	17	61	4	1	1	1	4	-1	0	1.213	-1.7475	-4.3266	2.8923	10.9646	-4.3483	2.6094	0.3553	4.6847	5.0587	-4.6606	6.9266	-1.9741	-0.1865	8.8495	3.7808	5.6946	-2.4929	-8.1577	-1.6715	-3.4815	0.333	0.333	0.333	0.333	0.333	0.333	0.333	0.333	0.333	0.333	0.333	0.333	0.333	0.333	0.333	0.333	0.333	0.333	0.333	6.327	1.4716	2.6975	17	265	0.193096629961913	0	1
"266"	17	25	4	0	0	0	13	-1	0	4.605	0.8798	-3.3102	-0.5041	-1.0918	-1.5932	4.2311	1.2039	-5.807	2.4967	2.2136	10.9507	-5.1477	7.1692	-7.6095	-0.9248	0.0957	-2.3521	3.6268	5.0132	-9.4577	0.4763	0.2028	0.479	0.2983	0.2355	0.2044	0.4331	0.2989	0.2192	0.3059	0.5044	0.4462	0.509	0.2145	0.2583	0.3459	0.3878	0.2717	0.2356	6.3268	1.6891	6.3062	17	266	1.52714266970727	0	1
"267"	17	47	4	1	1	1	12	1	1	3.819	4.5096	0.9067	2.3512	-3.6249	1.7482	-8.9381	12.1855	0.1895	6.561	-3.8374	1.2352	-5.4005	0.6854	-0.0064	1.2883	1.6178	3.792	-6.7921	7.9936	3.2917	0.333	0.333	0.333	0.333	0.333	0.333	0.333	0.333	0.333	0.333	0.333	0.333	0.333	0.333	0.333	0.333	0.333	0.333	0.333	6.327	1.6766	5.5028	17	267	1.33998860824338	1	0
"268"	17	7	4	4	4	1	9	1	1	2.709	8.7953	-0.8239	3.5616	1.1492	2.9779	6.9593	3.0032	6.6231	11.8699	-0.0968	7.4199	-0.0893	6.2631	-4.2969	12.8845	-4.6163	2.7955	1.1265	4.4827	10.6351	0.333	0.333	0.333	0.333	0.333	0.333	0.333	0.333	0.333	0.333	0.333	0.333	0.333	0.333	0.333	0.333	0.333	0.333	0.333	6.327	1.5486	4.2594	17	268	0.996579563102958	1	0
"269"	17	14	4	4	4	0	9	1	1	2.548	2.7452	11.8966	6.4935	1.8021	10.2643	1.4588	3.2691	6.1368	-0.824	5.2068	2.3572	1.7671	-0.8982	8.4374	5.3795	9.5312	12.6913	2.2135	-4.9611	-4.729	0.3512	0.251	0.3848	0.2649	0.2067	0.4728	0.3438	0.2218	0.368	0.4239	0.2355	0.3813	0.4985	0.4156	0.2971	0.2238	0.4789	0.2708	0.2407	6.3314	1.6855	4.2488	17	269	0.935308737709917	1	0
"270"	17	44	4	-2	-2	1	13	-1	1	4.022	2.4224	4.0802	-8.524	-2.8497	-7.5059	4.8404	4.2017	-1.1179	-3.12	-10.8074	-4.6633	-2.8448	-4.6256	7.3257	-0.0312	-8.0608	-8.1804	-1.1697	0.9282	-1.6355	0.333	0.333	0.333	0.333	0.333	0.333	0.333	0.333	0.333	0.333	0.333	0.333	0.333	0.333	0.333	0.333	0.333	0.333	0.333	6.327	1.4677	5.4891	17	270	1.39177929135046	0	1
"271"	17	39	4	0	0	0	9	1	1	2.812	2.5378	-0.1289	-8.2048	-4.2089	5.7914	-0.4863	8.9837	3.3009	-0.8802	3.0068	0.6653	-0.4027	4.1679	-0.3793	-3.8285	-8.9436	3.8632	5.8192	-1.869	-8.1683	0.2843	0.3278	0.2571	0.2935	0.3282	0.4504	0.523	0.2526	0.3071	0.4026	0.3447	0.373	0.2217	0.4083	0.3212	0.3972	0.237	0.2682	0.3338	6.3318	1.4465	4.2623	17	271	1.03389597394842	1	0
"272"	17	41	4	2	2	0	13	1	1	4.197	4.6518	4.6296	-2.4298	12.5028	-2.7564	4.7662	3.7898	-2.6517	6.6681	7.4188	1.6336	7.2633	-7.9552	-6.3803	-0.046	-1.7751	1.9095	1.7848	1.7884	3.4864	0.3607	0.2767	0.3397	0.4011	0.5176	0.2165	0.2642	0.4724	0.2091	0.3939	0.268	0.3385	0.2196	0.3634	0.3063	0.3675	0.4053	0.2335	0.3669	6.3208	1.6189	5.8141	17	272	1.43436998435145	1	0
"273"	17	38	4	-1	-1	0	11	-1	1	3.474	-1.5862	-2.9008	-1.422	-2.8046	1.082	1.4527	-9.3576	1.4155	3.1815	8.2185	-4.2139	5.4249	-4.9406	2.4164	-13.5824	-1.7802	-4.2763	-0.9323	3.245	1.3681	0.3152	0.4893	0.3217	0.2151	0.3058	0.2619	0.425	0.2292	0.3476	0.4606	0.4302	0.2762	0.3013	0.4463	0.2721	0.3065	0.2166	0.2577	0.4427	6.321	1.5522	5.0251	17	273	1.24530666781891	0	1
"274"	17	59	4	-1	-1	1	9	-1	1	2.989	-2.1424	-2.0354	-1.2919	8.3199	-6.2647	2.061	-8.0475	-7.5482	2.6534	4.066	3.8396	4.3757	-1.9135	-8.5091	-9.1876	-0.7203	-2.6054	-0.6071	3.8058	-0.1575	0.333	0.333	0.333	0.333	0.333	0.333	0.333	0.333	0.333	0.333	0.333	0.333	0.333	0.333	0.333	0.333	0.333	0.333	0.333	6.327	1.5805	4.5898	17	274	1.0949388833018	0	1
"275"	17	24	4	-1	-1	0	7	-1	1	2.213	-3.1169	1.0191	-9.2169	3.7438	-0.2115	5.0579	-0.0268	8.239	-1.1596	5.3023	-5.4202	-2.4187	5.872	-1.7904	-6.8733	-1.3969	-8.3368	2.1701	-3.9095	-6.0549	0.3255	0.2814	0.3881	0.2973	0.3845	0.2618	0.3425	0.37	0.3354	0.2494	0.385	0.3394	0.2401	0.2695	0.4708	0.2418	0.3778	0.3304	0.4387	6.3295	1.4756	3.6971	17	275	0.794349061068913	0	1
"276"	17	45	4	-1	-1	1	11	-1	1	3.624	-5.684	3.0714	-8.936	2.7248	-8.348	6.298	-5.8978	5.4943	-3.9532	7.092	-2.4462	-0.7973	1.0696	-4.9058	4.8752	-1.1213	-1.6106	0.4916	-7.0533	1.1425	0.333	0.333	0.333	0.333	0.333	0.333	0.333	0.333	0.333	0.333	0.333	0.333	0.333	0.333	0.333	0.333	0.333	0.333	0.333	6.327	1.4012	5.0417	17	276	1.28757838818073	0	1
"277"	17	42	4	4	4	0	6	1	1	1.891	5.6818	-0.0485	3.58	9.9159	5.16	3.769	-4.0513	6.2724	0.6187	11.5084	0.2117	9.5132	3.8309	9.8289	6.8281	4.7424	9.4081	-7.0409	2.5034	-1.1617	0.3629	0.3242	0.2843	0.5028	0.329	0.3602	0.2166	0.4639	0.3542	0.2422	0.3558	0.3809	0.2195	0.2787	0.5322	0.3047	0.2277	0.2835	0.3092	6.3325	1.4546	3.3585	17	277	0.63710578967632	1	0
"278"	17	10	4	-1	-1	0	10	-1	1	3.281	-1.7026	1.8959	-1.9158	7.994	-2.3927	5.4964	2.2215	-7.7259	4.9181	-1.9854	2.7582	-2.12	2.4459	1.7549	-11.033	-6.509	-7.9458	-4.7624	-4.7869	3.0552	0.36	0.4852	0.2498	0.3445	0.4821	0.2077	0.3566	0.4561	0.2338	0.3443	0.3179	0.2768	0.3962	0.4219	0.2408	0.372	0.2928	0.2047	0.2876	6.331	1.6275	4.9155	17	278	1.18814825397896	0	1
"279"	17	68	4	1	1	0	10	-1	0	2.874	-3.3084	-2.4235	4.105	-0.0553	-6.1391	11.6176	-3.7505	-1.0448	11.0637	-1.2521	-0.2033	-3.8739	5.9543	-2.6581	7.6921	0.0838	-0.161	6.1089	-2.7868	1.1436	0.5232	0.2423	0.3747	0.2636	0.2308	0.345	0.2969	0.2674	0.2223	0.2833	0.357	0.4011	0.2975	0.4789	0.2975	0.3446	0.2866	0.5054	0.3185	6.3368	1.5684	4.4582	17	279	1.05570478765683	0	1
"280"	17	19	4	1	1	1	16	-1	0	5.105	-2.677	-2.699	1.9008	11.391	3.169	-8.7869	-0.224	-7.7281	-4.1664	2.5124	-1.0509	1.4023	0.4419	5.7696	7.5138	2.9284	1.0837	1.5454	7.51	-0.79	0.333	0.333	0.333	0.333	0.333	0.333	0.333	0.333	0.333	0.333	0.333	0.333	0.333	0.333	0.333	0.333	0.333	0.333	0.333	6.327	1.4182	6.5385	17	280	1.63022045161663	0	1
"281"	17	44	5	-2	-2	1	12	1	0	3.842	1.6553	-8.012	0.6897	-6.4039	2.6855	-3.8231	1.1011	-6.5569	-7.8494	6.5823	-2.9438	-3.6986	2.2029	0.5794	-8.5522	-5.2763	0.9225	8.9875	-8.3448	-2.5253	0.333	0.333	0.333	0.333	0.333	0.333	0.333	0.333	0.333	0.333	0.333	0.333	0.333	0.333	0.333	0.333	0.333	0.333	0.333	6.327	1.6664	5.5264	17	281	1.34599306434636	1	0
"282"	17	62	5	2	2	1	6	1	1	1.949	1.5282	4.8668	-3.3916	10.8424	5.5791	0.7722	6.169	-3.5096	5.697	-1.9442	-2.3804	7.9211	1.0256	-4.2649	6.3115	-4.8559	3.6898	3.3844	7.3999	-5.5075	0.333	0.333	0.333	0.333	0.333	0.333	0.333	0.333	0.333	0.333	0.333	0.333	0.333	0.333	0.333	0.333	0.333	0.333	0.333	6.327	1.6094	3.5663	17	282	0.667316420525424	1	0
