"subNo"	"index"	"block"	"level"	"mean"	"periodicity"	"nEvents"	"answer"	"isCorrect"	"rt"	"s1"	"s2"	"s3"	"s4"	"s5"	"s6"	"s7"	"s8"	"s9"	"s10"	"s11"	"s12"	"s13"	"s14"	"s15"	"s16"	"s17"	"s18"	"s19"	"s20"	"t1"	"t2"	"t3"	"t4"	"t5"	"t6"	"t7"	"t8"	"t9"	"t10"	"t11"	"t12"	"t13"	"t14"	"t15"	"t16"	"t17"	"t18"	"t19"	"seqDuration"	"startInterval"	"trialDuration"	"pID"	"Trial"	"rtLog"	"right"	"left"
"1"	18	57	1	-4	-9.2	1	7	-1	1	2.01	-8.7256	-4.0206	-11.9338	0.6647	-17.0614	-5.708	-12.6822	-7.8708	-11.9366	-6.3301	-9.4571	-18.1645	-11.8117	-10.5255	-12.629	2.1757	-8.8078	-8.0271	-8.4678	-11.4483	0.333	0.333	0.333	0.333	0.333	0.333	0.333	0.333	0.333	0.333	0.333	0.333	0.333	0.333	0.333	0.333	0.333	0.333	0.333	6.327	1.6693	3.6777	18	1	0.698134722070984	0	1
"2"	18	68	1	1	2.3	0	7	1	1	2.58	-1.9795	-0.1249	9.8651	-3.4447	-0.3594	3.5753	4.4365	-0.9384	1.7117	-1.5316	5.6403	-1.5462	3.2754	11.172	12.9556	-6.7062	6.3094	0.8533	-0.8215	4.3134	0.2352	0.5127	0.4537	0.4098	0.2506	0.3185	0.4087	0.2299	0.3557	0.3302	0.2188	0.3367	0.2158	0.4168	0.2121	0.2858	0.225	0.5083	0.4004	6.3249	1.4186	3.9971	18	2	0.947789398933526	1	0
"3"	18	69	1	2	4.6	0	8	1	1	2.19	8.0037	1.6342	4.5786	-1.9061	0.758	0.6223	8.5077	9.6736	-4.2773	9.0428	8.4669	5.2014	5.2857	7.0913	2.1433	10.4946	-2.7409	14.063	-1.2994	5.7828	0.307	0.3905	0.3087	0.2515	0.2155	0.2517	0.4244	0.2183	0.2797	0.4824	0.2602	0.311	0.2529	0.4067	0.4619	0.3868	0.4925	0.202	0.4167	6.3203	1.4132	3.6072	18	3	0.783901543828409	1	0
"4"	18	3	1	-1	-2.3	1	6	1	0	1.919	2.0399	4.2464	4.4705	-5.2226	0.7606	-4.8022	-8.7655	-10.1296	4.3817	-1.9922	-9.3143	-0.3701	-0.4053	-4.5574	-1.6424	-2.8046	-9.8879	-5.4794	-4.4056	5.9764	0.333	0.333	0.333	0.333	0.333	0.333	0.333	0.333	0.333	0.333	0.333	0.333	0.333	0.333	0.333	0.333	0.333	0.333	0.333	6.327	1.6366	3.5697	18	4	0.651804217025563	1	0
"5"	18	64	1	-4	-9.2	0	5	-1	1	1.668	-12.5283	-3.5603	-13.8474	-10.8933	-4.4735	-14.2949	-0.0377	0.5807	-18.1877	-8.8401	-13.1332	-5.8299	-11.5359	-8.3371	-10.6876	-9.5565	-4.196	-10.9689	-15.8614	-8.3163	0.3481	0.4601	0.3484	0.2536	0.5039	0.2101	0.2726	0.4831	0.4182	0.3103	0.2306	0.2776	0.4336	0.3165	0.2255	0.3514	0.2075	0.2942	0.3736	6.3187	1.6425	3.3185	18	5	0.511625303936555	0	1
"6"	18	50	1	-4	-9.2	0	6	-1	1	1.943	-4.2305	-7.9652	-6.7336	-13.4456	-2.9917	-3.8954	-10.7791	-15.8609	-5.8886	-12.2126	-17.4947	-13.9974	-5.5159	-4.8477	-5.0644	-15.9743	-13.0617	-1.4516	-12.4078	-8.508	0.3378	0.4246	0.2423	0.3282	0.3845	0.4649	0.2112	0.3363	0.2146	0.2483	0.3136	0.411	0.3294	0.2639	0.344	0.229	0.4971	0.3327	0.4137	6.327	1.7006	3.6609	18	6	0.664233170395303	0	1
"7"	18	58	1	-2	-4.6	1	6	-1	1	1.99	-7.9651	5.5948	-8.5577	-4.3881	-4.3077	-1.2813	-4.869	-4.785	-4.0284	-9.5261	-12.303	-0.3174	-13.2639	-0.4029	0.41	-0.4758	-9.2808	-3.6085	1.3443	-9.0089	0.333	0.333	0.333	0.333	0.333	0.333	0.333	0.333	0.333	0.333	0.333	0.333	0.333	0.333	0.333	0.333	0.333	0.333	0.333	6.327	1.6091	3.6072	18	7	0.688134638736401	0	1
"8"	18	29	1	-4	-9.2	1	5	-1	1	1.576	-12.1009	-7.6403	-6.4193	-4.5845	-9.2795	-8.9114	-9.2068	-15.3647	-2.6397	-15.323	-5.65	-4.8388	-3.1436	-10.9752	-6.9377	-16.0097	-12.5214	-3.9077	-6.586	-20.8567	0.333	0.333	0.333	0.333	0.333	0.333	0.333	0.333	0.333	0.333	0.333	0.333	0.333	0.333	0.333	0.333	0.333	0.333	0.333	6.327	1.5263	3.1106	18	8	0.454889991435687	0	1
"9"	18	70	1	4	9.2	0	5	1	1	1.495	8.8867	10.175	12.2964	4.3999	2.7132	4.374	2.5821	3.8785	17.0696	9.5023	15.5328	9.1058	0.7773	8.4582	11.4797	10.3246	9.6565	11.5125	11.9595	18.9726	0.2295	0.3478	0.3783	0.2412	0.5248	0.2291	0.3361	0.3751	0.3327	0.3953	0.2876	0.3235	0.2952	0.2689	0.4072	0.2458	0.2909	0.5224	0.2995	6.3309	1.5503	3.0626	18	9	0.40212620684265	1	0
"10"	18	18	1	0	0	1	8	1	1	2.423	-4.3883	0.0237	-10.6658	5.4922	4.2733	-1.7319	4.0424	0.6826	-0.7988	2.4572	0.0423	0.8345	3.0386	-0.4418	6.281	-4.8855	-1.6484	-7.4418	-6.5296	9.6005	0.333	0.333	0.333	0.333	0.333	0.333	0.333	0.333	0.333	0.333	0.333	0.333	0.333	0.333	0.333	0.333	0.333	0.333	0.333	6.327	1.7205	4.1568	18	10	0.885006441834389	1	0
"11"	18	11	1	0	0	0	7	1	1	2.142	0.9776	-0.0595	2.3267	-5.5857	5.7559	6.8672	-2.1742	6.9029	3.526	3.31	-7.1586	7.6535	-1.9041	-5.1376	-6.8597	-4.9024	-0.8914	-3.4027	5.3446	-3.4249	0.3182	0.3584	0.3037	0.2674	0.3207	0.2492	0.3545	0.4832	0.2908	0.3677	0.4011	0.3155	0.2277	0.3029	0.4751	0.265	0.4173	0.2792	0.3358	6.3333	1.5185	3.6593	18	11	0.761739972025557	1	0
"12"	18	24	1	-1	-2.3	0	4	-1	1	1.255	-5.2021	-5.3027	-4.8358	-3.6721	4.4255	-8.5128	-4.6848	-7.7386	-2.1333	-6.2125	9.1195	7.0763	-3.12	0.1377	-7.6188	-3.6662	2.1201	1.6701	-6.0163	-2.9964	0.3077	0.2148	0.506	0.3593	0.208	0.2468	0.5174	0.2995	0.2521	0.3573	0.2079	0.4834	0.2504	0.2108	0.4383	0.4967	0.2107	0.4399	0.3233	6.3304	1.7242	2.9893	18	12	0.227135572583747	0	1
"13"	18	22	1	-4	-9.2	0	6	-1	1	1.594	-10.1975	-13.5631	-14.2569	-4.9581	-16.5659	-6.5858	-15.4378	-14.4337	-6.0876	-11.0283	-12.4195	-1.7139	-2.8938	-7.9408	-11.0854	-10.0996	-10.4175	-5.102	-9.6052	2.0902	0.3177	0.4356	0.2003	0.3436	0.2509	0.2168	0.2991	0.3846	0.2068	0.3135	0.2541	0.2915	0.3839	0.298	0.5078	0.2413	0.508	0.4801	0.3947	6.3283	1.5869	3.1779	18	13	0.466246580368023	0	1
"14"	18	56	1	4	9.2	0	5	1	1	1.322	11.2297	2.1727	10.0367	13.7201	10.6588	7.3437	12.3594	16.8739	7.3498	8.7943	16.4831	9.1693	12.5156	4.2293	13.0988	-0.0425	4.2598	15.4213	0.5472	9.454	0.4118	0.2858	0.3411	0.241	0.3118	0.4155	0.3008	0.4478	0.2728	0.377	0.3327	0.4445	0.2111	0.3687	0.3415	0.224	0.4337	0.2447	0.3177	6.3241	1.4563	2.7892	18	14	0.279145741429495	1	0
"15"	18	9	1	-2	-4.6	0	7	-1	1	1.963	-2.9914	-4.6046	-7.8536	2.1783	-13.0244	-6.8303	-10.3398	6.5398	-11.4928	-0.7587	-3.7666	-8.3749	0.9392	-9.1995	-3.2631	-4.951	-5.2816	-2.8795	1.0944	-8.9597	0.2254	0.3815	0.3209	0.2896	0.3995	0.2197	0.2804	0.2496	0.4385	0.2627	0.437	0.246	0.2995	0.3267	0.504	0.3496	0.3095	0.4811	0.307	6.3283	1.4011	3.3639	18	15	0.674473915294324	0	1
"16"	18	7	1	4	9.2	1	5	1	1	1.36	10.5734	3.0763	13.1151	5.3512	13.2663	12.8131	9.0512	7.5593	11.6205	11.5593	2.0272	14.0832	11.3897	9.0057	0.2012	11.984	17.8684	12.4714	7.8892	-0.9297	0.333	0.333	0.333	0.333	0.333	0.333	0.333	0.333	0.333	0.333	0.333	0.333	0.333	0.333	0.333	0.333	0.333	0.333	0.333	6.327	1.5932	2.9605	18	16	0.307484699747961	1	0
"17"	18	55	1	2	4.6	0	8	-1	0	2.369	5.7948	0.7909	6.2539	-0.0064	-2.757	2.4369	-0.6103	2.6313	7.1366	15.3104	-2.4228	-0.9492	5.3173	6.4515	11.3424	11.3338	1.3651	4.7807	10.0385	5.8821	0.315	0.2213	0.2683	0.4986	0.3909	0.2136	0.2695	0.4409	0.3628	0.3153	0.2002	0.4262	0.3622	0.3007	0.476	0.326	0.2835	0.2305	0.4181	6.3196	1.7019	4.0867	18	17	0.862467925176648	0	1
"18"	18	51	1	-2	-4.6	0	9	1	0	2.822	-1.2855	4.3445	-2.0923	2.2681	-7.0542	-4.1366	0.1616	-7.364	-11.0883	-5.0209	-7.5668	-11.6628	2.0262	-0.2965	-10.062	-8.4496	-6.639	-0.7804	-10.3831	-8.6864	0.2042	0.2949	0.4832	0.2627	0.3297	0.2467	0.3255	0.5193	0.4887	0.3096	0.5152	0.2723	0.2399	0.2918	0.3481	0.2391	0.4467	0.2193	0.2986	6.3354	1.6566	4.4898	18	18	1.03744585343062	1	0
"19"	18	4	1	0	0	1	6	1	0	1.765	0.0239	6.3464	4.3867	-6.6591	3.0443	-1.383	-7.2523	3.4708	0.6217	-0.2515	-5.3812	-6.2035	-1.5512	1.0353	-0.3979	-1.3383	1.5045	13.1997	-5.7839	1.9055	0.333	0.333	0.333	0.333	0.333	0.333	0.333	0.333	0.333	0.333	0.333	0.333	0.333	0.333	0.333	0.333	0.333	0.333	0.333	6.327	1.4811	3.2656	18	19	0.56815069038526	1	0
"20"	18	14	1	4	9.2	0	5	1	1	1.562	10.9202	12.2656	11.0023	4.8391	11.0648	10.8313	15.6271	0.8351	3.4691	7.5676	14.3968	9.2911	13.5635	-4.9204	8.8611	9.0047	14.8518	12.2652	10.0362	10.1066	0.5185	0.2771	0.4182	0.2246	0.2526	0.2161	0.3329	0.2956	0.3706	0.4022	0.3001	0.2708	0.3745	0.4172	0.2176	0.4522	0.5142	0.2149	0.2507	6.3209	1.6268	3.196	18	20	0.445967051417494	1	0
"21"	18	62	1	2	4.6	1	6	1	1	1.95	-0.035	2.8174	5.7622	3.3405	3.5054	7.6988	4.3154	9.2682	9.96	15.0697	-4.5479	6.5678	4.522	0.3545	2.9134	-4.1262	-0.2292	8.3897	11.0954	3.3802	0.333	0.333	0.333	0.333	0.333	0.333	0.333	0.333	0.333	0.333	0.333	0.333	0.333	0.333	0.333	0.333	0.333	0.333	0.333	6.327	1.6449	3.6005	18	21	0.667829372575655	1	0
"22"	18	36	1	-4	-9.2	0	5	-1	1	1.336	-6.289	-11.472	-12.8382	-9.668	-4.2778	-4.6244	-3.9199	-15.164	-13.7593	-6.7528	-19.0644	-8.3367	-9.4834	-3.4926	-1.0206	-16.3149	-7.0453	-5.5364	-14.6078	-12.1064	0.2013	0.2309	0.4816	0.3506	0.4455	0.3812	0.329	0.3947	0.2047	0.2521	0.2172	0.2687	0.4966	0.2334	0.383	0.2999	0.3757	0.3431	0.4383	6.3275	1.6852	3.0369	18	22	0.289680075114454	0	1
"23"	18	13	1	2	4.6	0	6	1	1	1.77	6.0956	8.7407	-6.5841	7.1941	6.4017	5.4803	1.4996	9.3683	9.7546	15.7288	2.38	3.3175	5.5009	10.0722	-0.0858	0.5048	1.8262	4.8373	-0.0652	-0.54	0.239	0.2006	0.3582	0.4134	0.2561	0.4722	0.507	0.2556	0.3614	0.3173	0.2418	0.2037	0.4038	0.2592	0.2257	0.4226	0.3002	0.3927	0.5033	6.3336	1.4833	3.2541	18	23	0.570979546585738	1	0
"24"	18	5	1	1	2.3	1	7	1	1	2.038	4.4998	2.4842	4.4263	1.5422	-3.5413	-0.0254	-1.858	9.8485	14.1391	4.381	0.4904	8.3368	1.5699	1.3527	5.4392	0.0598	-1.5975	2.0659	-0.8503	-8.3074	0.333	0.333	0.333	0.333	0.333	0.333	0.333	0.333	0.333	0.333	0.333	0.333	0.333	0.333	0.333	0.333	0.333	0.333	0.333	6.327	1.4131	3.4552	18	24	0.711968934800533	1	0
"25"	18	32	1	0	0	1	5	1	1	1.638	3.5823	3.3619	-2.0234	-0.7031	14.2159	-0.0269	-6.0943	-4.2166	-3.8467	2.1055	3.8347	-4.7988	0.4204	5.2456	1.5465	-0.4905	-1.5252	-2.6851	-9.7839	0.3095	0.333	0.333	0.333	0.333	0.333	0.333	0.333	0.333	0.333	0.333	0.333	0.333	0.333	0.333	0.333	0.333	0.333	0.333	0.333	6.327	1.506	3.1554	18	25	0.493475985430878	1	0
"26"	18	27	1	2	4.6	0	8	1	1	2.571	2.0521	1.098	3.6498	10.147	10.6336	-0.2898	3.4959	3.0046	8.891	-2.8849	14.9028	-4.0404	-1.1226	8.2987	10.5208	7.848	6.1534	3.9672	5.428	-0.484	0.2413	0.4373	0.5156	0.299	0.3404	0.2911	0.2507	0.2882	0.223	0.2917	0.5322	0.3431	0.2898	0.4355	0.3399	0.5063	0.2105	0.2875	0.2115	6.3345	1.662	4.2385	18	26	0.944294928283752	1	0
"27"	18	46	1	0	0	1	6	-1	0	1.829	0.7679	-3.4876	-6.3647	5.9577	-2.458	-0.1625	-4.9642	0.3149	9.0465	-7.4105	-2.4686	4.8889	6.4543	3.8278	6.629	-3.2523	2.8545	-7.4836	2.249	-3.4733	0.333	0.333	0.333	0.333	0.333	0.333	0.333	0.333	0.333	0.333	0.333	0.333	0.333	0.333	0.333	0.333	0.333	0.333	0.333	6.327	1.4398	3.2801	18	27	0.603769369408729	0	1
"28"	18	66	1	-1	-2.3	0	9	-1	1	3.002	-7.2465	-0.7708	0.419	2.4925	0.9274	-8.8708	-3.8058	3.6837	-4.9338	-2.073	3.8141	-6.4449	-3.026	-8.4306	-4.8613	3.9879	-1.4344	-12.7261	5.6572	-3.3842	0.5258	0.2162	0.3083	0.2644	0.2122	0.422	0.24	0.4283	0.46	0.488	0.344	0.2741	0.4174	0.2509	0.3754	0.218	0.2908	0.3659	0.2235	6.3252	1.5834	4.5858	18	28	1.09927873321127	0	1
"29"	18	23	1	-2	-4.6	0	8	-1	1	2.351	0.2644	-11.8792	-6.9949	-1.8346	-5.0526	2.1711	-1.811	-15.7781	-1.8084	-5.0671	-6.0595	-5.5374	-6.5013	-11.2189	-4.2947	-1.4665	-7.6553	-7.4196	2.6392	4.1754	0.4258	0.5104	0.405	0.222	0.2821	0.2029	0.2869	0.4326	0.2099	0.3137	0.3739	0.2342	0.3639	0.3134	0.263	0.3515	0.27	0.4145	0.4562	6.3318	1.5236	3.8684	18	29	0.854840769557932	0	1
"30"	18	61	1	1	2.3	1	5	1	1	1.463	1.7521	4.1001	1.1655	1.062	5.1729	9.3026	-1.1844	-4.5597	-2.6832	10.6878	1.686	0.7642	5.6328	1.4331	8.0278	-2.7294	-6.2695	10.2918	-3.339	5.9392	0.333	0.333	0.333	0.333	0.333	0.333	0.333	0.333	0.333	0.333	0.333	0.333	0.333	0.333	0.333	0.333	0.333	0.333	0.333	6.327	1.6478	3.1305	18	30	0.380489122037987	1	0
"31"	18	31	1	-1	-2.3	1	5	-1	1	1.563	-4.9604	-5.0181	-4.4113	-11.3583	-1.3381	4.2936	1.6566	-4.0479	3.9532	-7.2469	6.9157	-2.3119	-5.9488	-1.6749	2.006	-5.2147	-6.9329	6.3441	-4.683	-4.7757	0.333	0.333	0.333	0.333	0.333	0.333	0.333	0.333	0.333	0.333	0.333	0.333	0.333	0.333	0.333	0.333	0.333	0.333	0.333	6.327	1.46	3.0307	18	31	0.44660705143934	0	1
"32"	18	41	1	2	4.6	0	11	1	1	3.298	5.8229	5.8674	12.7326	-0.3184	7.867	10.5422	-2.5833	-4.2418	6.4903	-2.0128	6.2394	-2.0302	7.2686	9.5456	7.3744	10.5726	7.8172	1.2608	1.456	1.8714	0.3331	0.3813	0.4148	0.2146	0.3364	0.4311	0.2082	0.4033	0.3067	0.241	0.314	0.2606	0.4496	0.2939	0.2237	0.4517	0.2354	0.4995	0.3365	6.3353	1.7299	5.0485	18	32	1.19331622413741	1	0
"33"	18	20	1	2	4.6	1	8	1	1	2.342	4.3896	10.8212	3.3219	15.3846	1.8556	-5.6398	5.8342	9.1919	-0.9297	3.128	8.4557	8.2875	-3.0315	8.0961	3.0695	1.4633	8.9483	2.0502	3.6166	4.2392	0.333	0.333	0.333	0.333	0.333	0.333	0.333	0.333	0.333	0.333	0.333	0.333	0.333	0.333	0.333	0.333	0.333	0.333	0.333	6.327	1.4412	3.7923	18	33	0.851005265175526	1	0
"34"	18	21	1	4	9.2	1	4	1	1	1.293	8.4135	10.9755	10.6386	10.6714	4.7267	14.2779	5.2075	-4.9812	8.1696	9.787	14.7943	9.0754	15.4253	12.8884	10.8125	15.6459	10.9508	1.4142	8.8354	7.1616	0.333	0.333	0.333	0.333	0.333	0.333	0.333	0.333	0.333	0.333	0.333	0.333	0.333	0.333	0.333	0.333	0.333	0.333	0.333	6.327	1.5768	2.8775	18	34	0.25696509978972	1	0
"35"	18	48	1	2	4.6	1	9	1	1	2.864	2.8877	15.0698	7.5083	4.9035	4.7494	9.3761	6.0851	-6.4948	4.1492	7.4512	7.9029	3.6141	-5.3712	11.1271	3.1483	-1.0036	4.8002	5.777	6.0681	1.4213	0.333	0.333	0.333	0.333	0.333	0.333	0.333	0.333	0.333	0.333	0.333	0.333	0.333	0.333	0.333	0.333	0.333	0.333	0.333	6.327	1.5428	4.4151	18	35	1.0522192490984	1	0
"36"	18	37	1	-2	-4.6	0	5	-1	1	1.835	-3.6138	-8.4057	-3.7642	-1.8414	1.1274	-0.9846	-10.5629	-2.1506	-7.4154	1.0117	-12.2772	-6.7126	-8.0511	-10.881	-4.7828	7.5001	-7.3801	-4.4993	-10.1011	0.0933	0.3481	0.4613	0.2139	0.3987	0.4994	0.2237	0.3291	0.2056	0.2947	0.2141	0.3629	0.325	0.2531	0.4314	0.3785	0.2486	0.4451	0.3027	0.3869	6.3227	1.4822	3.3192	18	36	0.607044481506534	0	1
"37"	18	45	1	-1	-2.3	1	6	-1	1	1.994	-7.111	-3.6581	-1.2413	0.0429	-0.6575	-9.6569	-0.9763	0.1624	-5.2609	-4.4338	1.6867	-5.3103	6.9298	6.1924	-7.0213	-7.9547	2.4105	-11.508	1.863	-1.1538	0.333	0.333	0.333	0.333	0.333	0.333	0.333	0.333	0.333	0.333	0.333	0.333	0.333	0.333	0.333	0.333	0.333	0.333	0.333	6.327	1.7196	3.7285	18	37	0.690142671539647	0	1
"38"	18	43	1	-4	-9.2	1	6	-1	1	1.758	-9.5347	-6.8596	-6.4295	-10.3337	-12.7725	-4.3793	-8.815	-12.7703	-14.7574	-10.5747	-4.8416	-12.6356	0.1839	-16.391	-9.1547	-11.5693	-15.7486	-5.779	-14.7959	2.4218	0.333	0.333	0.333	0.333	0.333	0.333	0.333	0.333	0.333	0.333	0.333	0.333	0.333	0.333	0.333	0.333	0.333	0.333	0.333	6.327	1.5893	3.3585	18	38	0.564176799262985	0	1
"39"	18	26	1	1	2.3	0	8	1	1	2.371	6.4143	-1.1594	5.9655	-3.4684	-0.609	4.4366	1.8266	3.0909	-0.1245	0.1057	1.379	13.4759	6.6761	10.7079	-0.8145	-4.0471	-3.1212	-2.6893	-1.5172	8.8074	0.2317	0.338	0.2555	0.4013	0.4884	0.2903	0.218	0.2572	0.4781	0.321	0.4633	0.3387	0.2931	0.2096	0.5286	0.2496	0.2873	0.2302	0.4523	6.3322	1.6679	4.0382	18	39	0.863311807083268	1	0
"40"	18	47	1	1	2.3	1	5	1	1	1.583	1.6137	3.0557	5.2256	7.7608	13.7815	-1.4477	4.6849	2.9976	1.9177	5.5958	-2.4883	11.1625	-2.6908	6.4176	-2.5726	-2.7722	-3.9126	0.4338	0.0534	-2.0818	0.333	0.333	0.333	0.333	0.333	0.333	0.333	0.333	0.333	0.333	0.333	0.333	0.333	0.333	0.333	0.333	0.333	0.333	0.333	6.327	1.4608	3.0502	18	40	0.459321780898875	1	0
"41"	18	16	1	-2	-4.6	1	5	-1	1	1.37	-4.6866	0.619	-3.8137	-4.6041	-6.1971	-12.7014	-3.2964	5.5517	-0.4359	-7.3139	2.1747	-7.4473	-9.7348	1.6182	-12.2464	-7.1668	-1.085	-4.2545	-4.2156	-10.8927	0.333	0.333	0.333	0.333	0.333	0.333	0.333	0.333	0.333	0.333	0.333	0.333	0.333	0.333	0.333	0.333	0.333	0.333	0.333	6.327	1.5925	2.9707	18	41	0.314810739840034	0	1
"42"	18	59	1	-1	-2.3	1	5	-1	1	1.469	-4.9005	-4.5688	-3.2513	-0.9105	4.1122	-10.8855	-13.7295	-1.3888	-2.3614	6.4788	4.8232	-2.5312	-4.5362	-2.7311	-2.2251	-9.4717	-1.854	0.1544	-0.5855	3.2117	0.333	0.333	0.333	0.333	0.333	0.333	0.333	0.333	0.333	0.333	0.333	0.333	0.333	0.333	0.333	0.333	0.333	0.333	0.333	6.327	1.7047	3.1697	18	42	0.38458189719174	0	1
"43"	18	34	1	2	4.6	1	7	1	1	2.033	1.8015	-0.6912	-4.742	-3.0287	7.3358	12.5635	8.8204	3.7185	9.5773	8.923	11.1936	3.7206	0.9543	0.0268	2.0763	1.8457	5.0604	8.3786	1.5791	11.4591	0.333	0.333	0.333	0.333	0.333	0.333	0.333	0.333	0.333	0.333	0.333	0.333	0.333	0.333	0.333	0.333	0.333	0.333	0.333	6.327	1.733	3.7839	18	43	0.70951253464621	1	0
"44"	18	67	1	0	0	0	10	1	1	3.49	-4.9073	1.9142	-2.3347	-2.5946	-11.6921	-2.1351	0.7759	2.0333	-1.0935	-0.0235	1.7942	-0.7255	5.7528	13.8856	-0.7525	0.5656	3.8976	-3.0764	-5.2041	3.3938	0.5149	0.2522	0.3014	0.4945	0.4016	0.3458	0.3178	0.2412	0.2687	0.3663	0.2559	0.4307	0.4013	0.2918	0.2427	0.3437	0.2876	0.244	0.3267	6.3286	1.401	4.9076	18	44	1.24990173621434	1	0
"45"	18	6	1	2	4.6	1	5	1	1	1.65	1.9875	10.5962	-2.3251	5.7877	5.7051	4.0188	7.6817	3.7425	-0.6042	3.7047	11.9087	12.9183	1.5456	2.4853	1.7247	1.2874	-3.2341	4.9557	3.1359	14.928	0.333	0.333	0.333	0.333	0.333	0.333	0.333	0.333	0.333	0.333	0.333	0.333	0.333	0.333	0.333	0.333	0.333	0.333	0.333	6.327	1.6289	3.2841	18	45	0.500775287912489	1	0
"46"	18	38	1	-1	-2.3	0	11	-1	1	3.453	2.373	-6.4232	-2.7382	5.0582	4.8227	-6.1365	-5.4827	-5.9931	7.6595	-0.5608	-1.1422	0.2147	-5.0414	-2.2276	-9.5883	-0.234	-7.6805	-4.7275	3.2331	-10.0054	0.2555	0.2301	0.3174	0.2811	0.2168	0.482	0.512	0.227	0.3604	0.4573	0.2811	0.4569	0.2469	0.4636	0.3084	0.4388	0.3293	0.2116	0.2447	6.321	1.5395	5.0038	18	46	1.23924341840786	0	1
"47"	18	39	1	0	0	0	7	1	1	2.238	2.7702	1.4007	-6.073	-3.646	-12.1412	-1.7422	2.9756	0.4694	0.4284	1.8005	7.978	-8.427	-4.4391	-0.32	8.0305	0.5589	2.192	5.6566	1.3356	1.9394	0.3078	0.3928	0.2549	0.3263	0.4188	0.2863	0.3188	0.2093	0.4961	0.2481	0.285	0.2343	0.4974	0.2666	0.3866	0.305	0.2755	0.3347	0.4743	6.3188	1.5529	3.8054	18	47	0.805582609889734	1	0
"48"	18	2	1	-2	-4.6	1	4	-1	1	1.312	-8.8451	-10.0402	0.9134	-11.7531	-3.5793	-7.0515	-4.0464	-5.6606	0.6642	-5.605	-10.3228	0.7144	3.6151	0.9055	-1.4878	-2.9912	-1.2182	-3.3403	-5.9109	-15.4759	0.333	0.333	0.333	0.333	0.333	0.333	0.333	0.333	0.333	0.333	0.333	0.333	0.333	0.333	0.333	0.333	0.333	0.333	0.333	6.327	1.4778	2.7962	18	48	0.271552690521897	0	1
"49"	18	12	1	1	2.3	0	5	1	1	1.244	-1.9293	7.293	6.9079	11.2075	7.0476	5.8472	1.1058	-0.0896	2.6637	-0.0504	-3.891	2.5385	5.0475	-1.784	4.8736	6.5624	4.8021	1.5887	-9.1633	-4.5084	0.2395	0.3103	0.4495	0.2194	0.4991	0.3526	0.456	0.2939	0.2616	0.5043	0.3047	0.2495	0.3889	0.2114	0.2893	0.2168	0.3501	0.2704	0.4582	6.3254	1.5895	2.8444	18	49	0.218331994316988	1	0
"50"	18	35	1	4	9.2	1	5	1	1	1.635	11.5858	-2.9845	13.4601	11.6756	10.7333	11.195	4.4707	2.1089	9.4589	14.6765	12.8437	1.7233	6.6712	9.0046	5.9154	15.8658	7.7896	17.3898	9.8105	10.6847	0.333	0.333	0.333	0.333	0.333	0.333	0.333	0.333	0.333	0.333	0.333	0.333	0.333	0.333	0.333	0.333	0.333	0.333	0.333	6.327	1.5624	3.2027	18	50	0.491642804349217	1	0
"51"	18	44	1	-2	-4.6	1	4	-1	1	1.166	-2.8408	-10.1608	-6.2631	-5.8357	-6.5538	4.7214	-6.3634	-9.5281	-5.3597	0.1596	-4.8997	-13.9848	3.0633	-10.1232	-3.9771	-3.6054	2.9948	-10.4239	-3.4549	1.7323	0.333	0.333	0.333	0.333	0.333	0.333	0.333	0.333	0.333	0.333	0.333	0.333	0.333	0.333	0.333	0.333	0.333	0.333	0.333	6.327	1.6956	2.8666	18	51	0.153579087928301	0	1
"52"	18	8	1	-4	-9.2	0	7	-1	1	2.405	-4.9571	-12.1503	-11.3424	-2.3538	-8.2628	-10.5037	-7.511	-4.9016	-8.9149	-11.1505	-10.7721	-7.9692	-5.9685	-5.6468	-1.0376	-12.4987	-8.935	-18.0915	-22.7133	-8.5018	0.468	0.2972	0.4299	0.2373	0.3726	0.4061	0.276	0.4842	0.2281	0.2799	0.3918	0.2014	0.4552	0.4252	0.2476	0.2183	0.373	0.3004	0.2303	6.3225	1.6697	4.072	18	52	0.877549903557724	0	1
"53"	18	53	1	0	0	0	12	1	0	3.729	1.392	-2.674	-2.6585	3.2739	3.9285	-3.3895	0.6648	-7.721	-8.4028	-1.8515	3.1984	1.3199	-2.9032	-10.0014	5.5118	7.6304	-2.5698	7.972	1.577	4.6354	0.4203	0.4957	0.2666	0.3465	0.2412	0.3069	0.2289	0.5296	0.2596	0.3746	0.2157	0.2846	0.5071	0.2073	0.4035	0.2275	0.3622	0.2296	0.424	6.3315	1.7179	5.4465	18	53	1.31614010119668	1	0
"54"	18	40	1	1	2.3	0	5	1	1	1.529	-0.1219	2.5426	1.5927	-4.7806	7.4998	1.0536	12.7006	4.1673	-1.1867	-10.2729	4.8708	3.7678	2.8381	1.9885	7.1768	4.3623	-3.5225	1.0034	1.4245	7.1653	0.2132	0.4967	0.3693	0.2075	0.5294	0.2464	0.3179	0.372	0.3223	0.2249	0.451	0.4209	0.3483	0.2154	0.3649	0.4162	0.2656	0.2166	0.3275	6.3257	1.6179	3.1464	18	54	0.424613926946925	1	0
"55"	18	17	1	-1	-2.3	1	8	-1	1	2.594	-2.2387	3.5211	-7.3282	-5.0951	-8.1299	-1.4572	4.6546	0.7511	-4.0713	1.2297	5.4821	-5.1627	-9.3949	-1.0638	3.0243	0.2954	2.0481	-5.796	-12.8178	-6.1405	0.333	0.333	0.333	0.333	0.333	0.333	0.333	0.333	0.333	0.333	0.333	0.333	0.333	0.333	0.333	0.333	0.333	0.333	0.333	6.327	1.5354	4.1449	18	55	0.953201085894252	0	1
"56"	18	1	1	-4	-9.2	1	5	-1	1	1.619	-12.9809	-4.3317	-8.7984	-11.6435	-13.9722	-11.807	1.7615	-3.4563	-14.0403	-6.6045	-9.4318	-14.8978	-7.0044	-10.9783	-3.3259	-10.9731	-14.5118	-2.1453	-8.4844	-15.9525	0.333	0.333	0.333	0.333	0.333	0.333	0.333	0.333	0.333	0.333	0.333	0.333	0.333	0.333	0.333	0.333	0.333	0.333	0.333	6.327	1.6274	3.2702	18	56	0.481808674695498	0	1
"57"	18	54	1	1	2.3	0	9	1	1	2.559	1.3465	-5.3099	-0.6008	5.1384	-5.5859	-3.892	7.2496	7.1882	2.364	2.953	1.7164	10.3673	8.6062	2.3614	2.0334	4.5422	2.9498	-1.8147	10.3858	-5.0205	0.3327	0.2684	0.4458	0.2191	0.4528	0.2385	0.3314	0.2293	0.2973	0.4507	0.3553	0.2633	0.3545	0.2076	0.3881	0.2043	0.3639	0.4873	0.4398	6.33	1.6214	4.1934	18	57	0.939616557177652	1	0
"58"	18	15	1	-4	-9.2	1	5	-1	1	1.436	-9.5051	-5.1646	-10.129	-12.9924	2.3661	-17.0766	-13.9041	-9.6787	-11.1361	-12.046	-15.9393	-12.434	-7.0313	-10.0688	0.4002	-11.1204	-5.2908	-13.3612	-7.4795	-3.0544	0.333	0.333	0.333	0.333	0.333	0.333	0.333	0.333	0.333	0.333	0.333	0.333	0.333	0.333	0.333	0.333	0.333	0.333	0.333	6.327	1.4456	2.8862	18	58	0.361861470626032	0	1
"59"	18	19	1	1	2.3	1	7	1	1	2.036	0.672	-0.9123	-2.4797	2.4533	-2.1036	10.1443	0.3139	-0.1629	8.104	2.7968	10.3024	5.7447	3.2755	3.4892	2.2038	-5.1836	12.3143	-4.0831	-3.0004	0.7236	0.333	0.333	0.333	0.333	0.333	0.333	0.333	0.333	0.333	0.333	0.333	0.333	0.333	0.333	0.333	0.333	0.333	0.333	0.333	6.327	1.4657	3.5196	18	59	0.710987098688276	1	0
"60"	18	65	1	-2	-4.6	0	8	-1	1	2.505	-1.0901	-6.9079	3.3921	0.3719	-10.5235	-11.1198	-9.5235	-4.9979	-5.4614	1.3949	-6.3464	-7.2529	-9.4352	2.4328	-5.4716	-4.6118	-1.6111	0.8405	-2.6403	-14.2174	0.2178	0.4887	0.2637	0.3359	0.4129	0.2292	0.3006	0.5225	0.2792	0.3792	0.2652	0.3374	0.222	0.406	0.2392	0.4274	0.2293	0.4742	0.3022	6.3327	1.4558	3.9725	18	60	0.918288734536828	0	1
"61"	18	49	1	4	9.2	1	4	1	1	1.254	5.9807	14.8157	5.5872	13.7214	10.5439	8.9317	3.3302	9.9254	4.9727	-2.0486	13.7655	12.9532	9.489	5.6399	7.1129	5.4891	19.4207	11.3966	14.6796	7.9545	0.333	0.333	0.333	0.333	0.333	0.333	0.333	0.333	0.333	0.333	0.333	0.333	0.333	0.333	0.333	0.333	0.333	0.333	0.333	6.327	1.4644	2.7216	18	61	0.226338442210729	1	0
"62"	18	10	1	-1	-2.3	0	6	-1	1	1.91	0.4698	2.1499	-9.1306	-0.8764	-5.4353	-6.5333	-4.4578	1.4989	6.7121	-3.4416	-0.3211	2.2115	1.3113	2.0588	2.5764	-0.496	-10.6187	-7.6163	-6.934	-9.9117	0.3836	0.2813	0.4183	0.2401	0.476	0.3847	0.2433	0.2724	0.4911	0.2148	0.4819	0.2094	0.2484	0.4179	0.2983	0.381	0.2544	0.3247	0.2966	6.3182	1.5828	3.494	18	62	0.647103242058538	0	1
"63"	18	25	1	0	0	0	9	1	0	2.777	1.1589	-5.3752	5.9816	-1.8084	0.3212	1.0846	2.5715	3.2313	-7.9055	2.9391	5.9652	-8.4348	2.0631	-11.3522	1.3523	-1.0593	7.1919	-2.339	1.1877	2.8946	0.4309	0.332	0.4767	0.3943	0.2776	0.2337	0.2914	0.2144	0.4339	0.2184	0.3943	0.4448	0.2776	0.3339	0.3021	0.2525	0.4981	0.2938	0.2353	6.3356	1.464	4.2444	18	63	1.02137120832466	1	0
"64"	18	33	1	1	2.3	1	5	1	1	1.344	3.5704	3.1765	7.0397	1.8506	-1.7114	0.1925	-4.4445	0.5314	10.982	-1.9493	-8.3351	12.5667	1.4019	1.4087	0.5052	5.4788	4.0003	-1.8882	8.8012	1.4001	0.333	0.333	0.333	0.333	0.333	0.333	0.333	0.333	0.333	0.333	0.333	0.333	0.333	0.333	0.333	0.333	0.333	0.333	0.333	6.327	1.5914	2.9452	18	64	0.295650242100958	1	0
"65"	18	63	1	4	9.2	1	4	1	1	1.255	11.2295	10.8227	2.1491	10.7403	7.9957	18.0104	19.6601	-2.6571	7.2432	4.625	4.5626	10.5837	11.3499	13.1331	11.5709	7.38	11.8579	7.6752	6.0678	10.449	0.333	0.333	0.333	0.333	0.333	0.333	0.333	0.333	0.333	0.333	0.333	0.333	0.333	0.333	0.333	0.333	0.333	0.333	0.333	6.327	1.6227	2.8888	18	65	0.227135572583747	1	0
"66"	18	60	1	0	0	1	5	-1	1	1.459	-3.1467	-10.6397	-0.3166	0.2618	0.0355	7.9303	-0.7348	-4.2494	-3.4493	5.5525	3.343	-4.3201	-3.4312	5.3081	7.8686	0.0212	-4.2139	7.9913	-2.8449	-2.7755	0.333	0.333	0.333	0.333	0.333	0.333	0.333	0.333	0.333	0.333	0.333	0.333	0.333	0.333	0.333	0.333	0.333	0.333	0.333	6.327	1.4166	2.8759	18	66	0.377751269540649	0	1
"67"	18	52	1	-1	-2.3	0	8	1	0	2.338	1.6421	-14.0239	-7.7012	-1.1356	5.6935	-5.0534	4.7986	1.0918	2.1168	-8.2311	3.2592	0.9403	-8.4189	-2.2313	-2.461	-7.0082	-3.5375	0.0604	-2.221	-4.9221	0.2199	0.3264	0.3595	0.2469	0.3768	0.2102	0.2913	0.4552	0.2227	0.5268	0.2304	0.3275	0.2721	0.3393	0.2742	0.4999	0.2171	0.4102	0.5158	6.3222	1.6919	4.0386	18	67	0.849295863049877	1	0
"68"	18	28	1	4	9.2	0	4	1	1	1.171	12.6722	12.5468	15.1354	3.7325	6.2298	10.5954	11.6293	3.2558	-3.3341	12.3699	12.9461	9.943	9.0828	10.2765	10.3284	6.9339	16.6756	14.7659	2.2648	5.6425	0.405	0.3416	0.3801	0.439	0.2077	0.4768	0.2827	0.2492	0.4083	0.4873	0.3058	0.2511	0.3286	0.2051	0.2349	0.2659	0.3311	0.4965	0.2378	6.3345	1.721	2.9056	18	68	0.15785808461558	1	0
"69"	18	30	1	-2	-4.6	1	5	-1	1	1.346	-5.3598	-2.0733	-6.5463	3.4036	-7.4124	-7.4434	0.9615	-2.713	-3.1199	-4.355	2.4598	-9.2567	-1.9633	-3.5917	-10.641	-8.5075	-3.0976	0.8476	-17.8299	-4.311	0.333	0.333	0.333	0.333	0.333	0.333	0.333	0.333	0.333	0.333	0.333	0.333	0.333	0.333	0.333	0.333	0.333	0.333	0.333	6.327	1.6179	2.9806	18	69	0.297137231222536	0	1
"70"	18	42	1	4	9.2	0	5	1	1	1.701	7.7299	13.0936	4.8939	1.2487	2.8851	8.6682	14.8641	9.5619	10.9682	13.4949	14.434	6.2558	12.2041	14.1202	5.5323	14.9624	7.4969	0.5659	17.6381	3.9486	0.3338	0.4408	0.2274	0.3101	0.4738	0.3899	0.4362	0.3159	0.2079	0.2707	0.3955	0.2557	0.44	0.2386	0.2942	0.2648	0.356	0.4374	0.2397	6.3283	1.5812	3.3015	18	70	0.531216313413725	1	0
"71"	18	32	2	0	0	1	5	-1	0	1.575	1.6868	-7.8215	-7.0126	0.0071	-0.0916	-5.2275	10.0185	-2.1525	-6.5596	-6.2617	3.8153	4.8704	1.3221	4.1011	2.4379	1.0135	8.955	-1.8877	-1.0504	-0.9492	0.333	0.333	0.333	0.333	0.333	0.333	0.333	0.333	0.333	0.333	0.333	0.333	0.333	0.333	0.333	0.333	0.333	0.333	0.333	6.327	1.6311	3.2091	18	71	0.454255272277596	0	1
"72"	18	10	2	-1	-1.7	0	7	1	0	2.306	-3.4468	-4.6631	-4.2412	-0.3592	-2.29	4.3037	-7.86	-8.48	-1.4668	0.7239	5.828	-0.6364	-0.4419	-2.83	-5.7975	-4.4396	0.4285	-0.1192	-8.3653	11.8476	0.3892	0.3535	0.2077	0.2729	0.3571	0.5097	0.3664	0.4784	0.212	0.2688	0.2312	0.2699	0.3849	0.2991	0.2056	0.2857	0.4059	0.5293	0.3029	6.3301	1.7109	4.0233	18	72	0.835514421846867	1	0
"73"	18	37	2	-2	-3.4	0	6	-1	1	2.031	-2.2331	2.3806	-13.3687	-9.9385	-4.277	-1.0556	-1.4148	4.8034	1.012	-4.3621	-4.4335	-8.8753	0.3403	-2.9053	-1.3704	-4.8929	-13.4754	-3.7685	-3.6203	2.7662	0.466	0.3528	0.2072	0.3079	0.4001	0.3002	0.4675	0.3439	0.2379	0.269	0.2955	0.2108	0.4764	0.2929	0.3802	0.2318	0.2774	0.3355	0.4834	6.3365	1.5451	3.5981	18	73	0.708528282598248	0	1
"74"	18	3	2	-1	-1.7	1	7	1	0	2.097	0.2148	1.8553	-3.2045	-5.3842	5.2683	0.8372	5.0446	-4.2588	-1.5067	-10.5424	5.3063	-2.1743	-6.0917	3.271	-7.1444	3.2554	-0.3239	-8.8632	0.1683	-10.1088	0.333	0.333	0.333	0.333	0.333	0.333	0.333	0.333	0.333	0.333	0.333	0.333	0.333	0.333	0.333	0.333	0.333	0.333	0.333	6.327	1.4478	3.5644	18	74	0.740507751919783	1	0
"75"	18	44	2	-2	-3.4	1	7	-1	1	2.302	-0.6999	-4.5944	-2.7586	0.4849	-7.5955	-8.0985	-9.1321	-2.8821	7.3016	-5.036	-2.3286	-2.34	-3.3461	-3.8777	-12.7977	-1.777	-4.7912	1.673	5.1745	-11.3267	0.333	0.333	0.333	0.333	0.333	0.333	0.333	0.333	0.333	0.333	0.333	0.333	0.333	0.333	0.333	0.333	0.333	0.333	0.333	6.327	1.4349	3.7526	18	75	0.833778310299691	0	1
"76"	18	19	2	1	1.7	1	6	1	1	1.825	2.5703	2.4463	2.316	1.477	10.3859	3.5273	2.2062	-0.0536	-1.9976	-9.1394	-0.3831	-2.2974	3.7829	-4.5174	7.8697	-7.1367	5.645	3.2507	8.4078	4.5889	0.333	0.333	0.333	0.333	0.333	0.333	0.333	0.333	0.333	0.333	0.333	0.333	0.333	0.333	0.333	0.333	0.333	0.333	0.333	6.327	1.465	3.3093	18	76	0.601579987034455	1	0
"77"	18	51	2	-2	-3.4	0	7	-1	1	2.164	1.1769	-10.4798	-0.1106	-0.2946	-5.0199	-3.2006	-3.5781	5.1981	-4.5355	3.3052	-7.2763	-9.6468	-7.7783	-10.1837	-6.7326	-6.9771	-4.0911	-6.4788	2.2197	5.9958	0.2221	0.2623	0.3937	0.2198	0.2566	0.3636	0.4625	0.2672	0.446	0.3077	0.2751	0.211	0.4127	0.2408	0.5214	0.4089	0.2221	0.294	0.5325	6.3202	1.6343	3.8149	18	77	0.771958360984235	0	1
"78"	18	6	2	2	3.4	1	7	1	1	1.999	1.5932	4.8134	-2.7508	13.6492	1.1312	10.6488	-0.6268	3.3634	3.2149	-3.2356	0.3546	2.4259	1.8656	-3.6848	6.9761	7.9385	-0.138	9.1852	0.9494	9.9573	0.333	0.333	0.333	0.333	0.333	0.333	0.333	0.333	0.333	0.333	0.333	0.333	0.333	0.333	0.333	0.333	0.333	0.333	0.333	6.327	1.5778	3.5828	18	78	0.692647055518263	1	0
"79"	18	31	2	-1	-1.7	1	8	-1	1	2.481	-0.0681	0.0948	-8.9005	-3.5371	-5.5532	8.4777	-11.1613	-11.7458	4.9363	2.0862	1.3165	-2.1056	0.1856	1.4095	-0.1894	0.4711	-0.1603	-0.4845	-5.2351	-2.7267	0.333	0.333	0.333	0.333	0.333	0.333	0.333	0.333	0.333	0.333	0.333	0.333	0.333	0.333	0.333	0.333	0.333	0.333	0.333	6.327	1.6602	4.149	18	79	0.908661704709664	0	1
"80"	18	56	2	4	6.8	0	6	1	1	1.512	8.6323	8.0036	7.0073	1.6094	10.1158	3.4967	0.1507	-6.469	9.8912	4.854	7.0137	7.6996	3.2487	13.9058	14.2601	7.985	12.1587	12.1541	5.6053	3.4982	0.2278	0.2985	0.2437	0.3888	0.3514	0.4679	0.4977	0.4071	0.2244	0.3224	0.2551	0.3311	0.4704	0.2309	0.3027	0.2172	0.3298	0.4306	0.3256	6.323	1.5649	3.0799	18	80	0.413433277757341	1	0
"81"	18	24	2	-1	-1.7	0	7	-1	1	2.249	0.4398	5.6764	2.4435	-6.4571	-8.001	-5.1518	-7.1415	1.4052	2.3555	-15.0151	3.0447	1.8731	-1.9106	0.2174	-1.7049	1.0551	-3.9376	0.0636	-4.733	2.6904	0.2009	0.5181	0.2739	0.4101	0.2976	0.3351	0.3825	0.256	0.2117	0.4142	0.3504	0.4542	0.2428	0.4062	0.2531	0.2782	0.429	0.3588	0.2549	6.3277	1.5923	3.8497	18	81	0.810485672977179	0	1
"82"	18	14	2	4	6.8	0	6	1	1	1.866	6.5832	-1.0791	9.6064	11.8149	-5.5951	13.8998	13.3983	9.3117	6.8179	6.5874	8.7365	9.2415	3.8587	3.395	1.1304	9.0555	5.9873	6.0902	13.2618	2.9282	0.4833	0.2109	0.3346	0.5118	0.2322	0.3161	0.2393	0.5183	0.2807	0.3063	0.3385	0.2006	0.3761	0.4399	0.5114	0.2258	0.2685	0.2278	0.3123	6.3344	1.5292	3.3996	18	82	0.623797102425152	1	0
"83"	18	67	2	0	0	0	6	1	1	1.969	1.8273	-6.1428	0.2932	-2.0122	9.6404	-2.4311	1.2409	-2.4289	1.3484	4.1491	-4.2071	3.1255	-9.9956	6.0173	-6.4206	-4.2213	0.1181	-1.2537	8.1819	3.573	0.2065	0.2882	0.5113	0.2742	0.3258	0.3806	0.2511	0.4105	0.3168	0.5061	0.2186	0.2792	0.4517	0.2112	0.4901	0.4176	0.2182	0.3449	0.2177	6.3204	1.4071	3.3864	18	83	0.677525799656989	1	0
"84"	18	39	2	0	0	0	6	1	1	2.011	-2.7182	-0.6815	5.6267	2.9894	-0.584	4.2308	7.21	-2.1865	-1.3634	-0.4632	-0.5466	-9.4388	5.3119	2.6446	9.8198	-6.7507	-8.4075	-3.5361	0.328	0.4323	0.279	0.473	0.3714	0.2971	0.2583	0.4064	0.2939	0.3282	0.4402	0.2205	0.4144	0.2498	0.3299	0.3633	0.4378	0.2321	0.3454	0.3184	0.264	6.323	1.7128	3.729	18	84	0.698632110790515	1	0
"85"	18	55	2	2	3.4	0	9	1	1	2.746	-0.2782	-2.6658	1.1123	6.665	0.1506	0.33	-9.7298	5.0278	5.5614	1.2421	12.1356	-0.1007	6.4407	5.5316	10.3773	5.5592	1.5831	8.1436	7.5715	5.2223	0.3416	0.3963	0.2454	0.2908	0.2231	0.4088	0.2516	0.3363	0.3059	0.4208	0.2029	0.2402	0.3135	0.4476	0.4046	0.3313	0.4233	0.4714	0.2764	6.3318	1.5411	4.2803	18	85	1.01014530734578	1	0
"86"	18	25	2	0	0	0	7	-1	1	2.629	2.5667	-8.633	-5.3145	2.1344	3.4546	-1.5652	-0.094	7.4145	-3.8259	-6.7488	-5.539	-0.4982	-0.5294	9.2188	6.9525	-3.5175	2.161	1.437	4.2114	-4.8278	0.2329	0.4974	0.3655	0.4754	0.3318	0.2432	0.5291	0.2935	0.2217	0.3472	0.3781	0.245	0.3398	0.2012	0.2715	0.367	0.2128	0.4365	0.332	6.3218	1.647	4.296	18	86	0.966603545747744	0	1
"87"	18	23	2	-2	-3.4	0	8	1	0	2.349	-2.9456	-5.4251	-9.8406	2.3384	3.1218	-3.0551	-4.3058	-7.1293	-4.9328	5.0334	2.4961	0.2864	-10.1798	-6.4187	2.7674	-2.2324	-9.3764	-12.786	-5.9234	-0.1942	0.3051	0.4975	0.3533	0.224	0.2756	0.3599	0.2631	0.2031	0.3832	0.5142	0.2157	0.3433	0.5248	0.2597	0.3879	0.2085	0.2725	0.3836	0.3532	6.3281	1.4109	3.7662	18	87	0.853989705676776	1	0
"88"	18	7	2	4	6.8	1	8	1	1	2.491	2.9344	8.1842	12.0379	7.7459	-1.4708	10.3294	14.8844	8.1595	8.456	7.298	12.0182	-1.9088	1.4752	13.9025	5.3148	7.8388	1.5263	9.2517	7.5749	-0.1565	0.333	0.333	0.333	0.333	0.333	0.333	0.333	0.333	0.333	0.333	0.333	0.333	0.333	0.333	0.333	0.333	0.333	0.333	0.333	6.327	1.5929	4.092	18	88	0.912684236280043	1	0
"89"	18	15	2	-4	-6.8	1	5	-1	1	1.467	-3.0763	0.2113	-3.9661	-11.0591	-0.1311	-15.4497	-11.8662	-5.9674	-13.3185	-6.714	-11.9752	-9.659	-10.601	-7.1384	-4.9027	0.8322	-6.7397	1.7536	-9.8538	-8.3537	0.333	0.333	0.333	0.333	0.333	0.333	0.333	0.333	0.333	0.333	0.333	0.333	0.333	0.333	0.333	0.333	0.333	0.333	0.333	6.327	1.5855	3.0675	18	89	0.383219499160845	0	1
"90"	18	65	2	-2	-3.4	0	5	-1	1	1.268	-4.3656	-7.525	-6.2132	-6.9221	1.6113	6.7631	-11.4649	-4.2386	-0.8524	1.1218	5.2284	0.7639	-5.0812	-1.9979	-3.712	-10.4853	-1.3433	-2.1836	-11.3127	-4.8111	0.2851	0.4019	0.2828	0.2272	0.264	0.2283	0.263	0.411	0.2914	0.2509	0.343	0.2671	0.4474	0.4866	0.4305	0.4572	0.328	0.2673	0.3957	6.3287	1.4786	2.7525	18	90	0.237440856015034	0	1
"91"	18	36	2	-4	-6.8	0	6	-1	1	1.922	-4.4862	-5.2825	2.7947	-3.2063	-9.2109	-17.1129	-7.0678	-2.3325	-11.7972	-12.1931	-9.9099	2.0884	-5.3406	-12.8743	-4.281	-7.0723	-6.6734	-2.4382	-7.2218	-12.1906	0.277	0.3954	0.4373	0.3703	0.2129	0.2703	0.4859	0.3901	0.357	0.3148	0.3463	0.2079	0.2761	0.2188	0.4059	0.2252	0.3122	0.476	0.346	6.3255	1.5848	3.523	18	91	0.653366310548101	0	1
"92"	18	61	2	1	1.7	1	6	1	1	1.859	4.1325	0.2	2.7976	-2.1834	2.6456	-7.0507	1.1999	-4.0869	-2.1701	6.8713	13.0182	7.693	-2.325	7.2313	7.7634	2.1166	-4.544	0.1777	0.3688	0.9413	0.333	0.333	0.333	0.333	0.333	0.333	0.333	0.333	0.333	0.333	0.333	0.333	0.333	0.333	0.333	0.333	0.333	0.333	0.333	6.327	1.6784	3.5434	18	92	0.620038708739307	1	0
"93"	18	34	2	2	3.4	1	5	1	1	1.557	1.7506	1.3329	6.5873	5.6291	-1.7538	-5.8444	8.0141	5.0254	-4.4599	6.7417	-2.8884	8.5324	-3.1508	6.7923	8.8006	11.4992	4.617	4.9711	0.8777	3.9983	0.333	0.333	0.333	0.333	0.333	0.333	0.333	0.333	0.333	0.333	0.333	0.333	0.333	0.333	0.333	0.333	0.333	0.333	0.333	6.327	1.4944	3.0576	18	93	0.442760892851861	1	0
"94"	18	54	2	1	1.7	0	11	-1	0	3.795	-2.9369	3.4	6.9802	-1.9667	-0.5851	1.412	-1.7813	8.7263	-1.5637	-8.8014	8.5706	3.7697	-0.4368	0.3878	3.1473	11.1981	-4.3211	7.9292	0.8295	0.9898	0.5302	0.327	0.4764	0.3031	0.3626	0.2587	0.3286	0.2859	0.4338	0.3045	0.4104	0.2494	0.2078	0.3684	0.2181	0.2793	0.3829	0.2557	0.346	6.3287	1.5907	5.3959	18	94	1.33368441084759	0	1
"95"	18	16	2	-2	-3.4	1	7	1	0	2.226	-7.755	4.9075	-0.4404	-11.0147	1.6327	-2.5543	2.8455	-4.6627	-9.8461	-12.549	-4.1778	-1.4786	-2.5013	-1.6569	-1.3968	-4.8627	-8.6256	-2.135	-5.3663	5.225	0.333	0.333	0.333	0.333	0.333	0.333	0.333	0.333	0.333	0.333	0.333	0.333	0.333	0.333	0.333	0.333	0.333	0.333	0.333	6.327	1.6884	3.9097	18	95	0.800206252853353	1	0
"96"	18	9	2	-2	-3.4	0	13	-1	1	4.221	-4.7284	-1.4833	-0.6666	3.8961	-0.3064	-1.6401	-13.1102	-3.3625	3.5433	-8.5103	0.3123	0.0849	-2.7507	-10.0344	-7.8086	-4.7593	2.9285	-8.1497	-10.3094	0.1587	0.2042	0.4245	0.2192	0.4156	0.3372	0.2608	0.3313	0.2626	0.4352	0.4075	0.214	0.3314	0.4126	0.3253	0.2062	0.512	0.3155	0.2278	0.4902	6.3332	1.5182	5.7386	18	96	1.44007206680036	0	1
"97"	18	18	2	0	0	1	8	1	1	2.38	-1.8346	-2.8343	-2.4482	6.0585	6.9974	2.3695	6.1198	0.3228	2.7732	2.1019	-2.5586	2.9068	-6.3229	0.9892	-6.8113	-3.837	-0.4991	10.0496	-5.1332	-9.4819	0.333	0.333	0.333	0.333	0.333	0.333	0.333	0.333	0.333	0.333	0.333	0.333	0.333	0.333	0.333	0.333	0.333	0.333	0.333	6.327	1.4314	3.8135	18	97	0.867100487683383	1	0
"98"	18	4	2	0	0	1	8	1	1	2.447	2.3918	-0.2504	2.0216	-3.7138	1.9187	-7.116	0.6651	-3.1785	1.0282	0.5864	9.1777	8.4098	-6.1199	4.4977	-2.3797	0.2946	-10.333	2.4111	-5.5026	5.2122	0.333	0.333	0.333	0.333	0.333	0.333	0.333	0.333	0.333	0.333	0.333	0.333	0.333	0.333	0.333	0.333	0.333	0.333	0.333	6.327	1.5033	3.9647	18	98	0.894862784460535	1	0
"99"	18	58	2	-2	-3.4	1	10	1	0	3.071	-2.2169	1.4809	-2.1438	0.907	2.4679	-7.3394	-1.6009	-8.1596	-1.1489	-11.8906	-0.3234	-0.5766	-8.7805	-8.4998	2.3754	-1.9265	-4.2803	-4.1614	1.0893	-15.0242	0.333	0.333	0.333	0.333	0.333	0.333	0.333	0.333	0.333	0.333	0.333	0.333	0.333	0.333	0.333	0.333	0.333	0.333	0.333	6.327	1.5939	4.6722	18	99	1.12200324145869	1	0
"100"	18	62	2	2	3.4	1	5	1	1	1.496	4.196	7.6887	-0.4413	0.9484	14.9374	4.1942	6.9415	9.1478	1.7408	-3.4623	-0.6288	6.0706	8.0306	5.6287	-4.4098	2.8135	-5.9085	4.4303	-0.5373	5.1549	0.333	0.333	0.333	0.333	0.333	0.333	0.333	0.333	0.333	0.333	0.333	0.333	0.333	0.333	0.333	0.333	0.333	0.333	0.333	6.327	1.6594	3.1632	18	100	0.402794879552285	1	0
"101"	18	29	2	-4	-6.8	1	5	-1	1	1.358	-7.4959	-10.2941	-10.3927	-17.4919	-9.3176	-6.7054	-7.8702	-10.2339	-16.4419	2.0764	-2.5517	-6.6794	-1.9614	-2.1826	-1.7135	-10.791	-3.2633	-1.5234	-4.7525	-6.4705	0.333	0.333	0.333	0.333	0.333	0.333	0.333	0.333	0.333	0.333	0.333	0.333	0.333	0.333	0.333	0.333	0.333	0.333	0.333	6.327	1.4285	2.7921	18	101	0.306013029136504	0	1
"102"	18	2	2	-2	-3.4	1	7	-1	1	2.015	-2.4754	-6.8403	-5.2549	-9.2164	1.983	-1.68	-13.7106	-6.2177	-6.9847	-0.1734	-0.1857	1.5298	-0.2127	-2.0506	-4.6069	10.4832	-5.9542	-4.1109	-7.5535	-4.6438	0.333	0.333	0.333	0.333	0.333	0.333	0.333	0.333	0.333	0.333	0.333	0.333	0.333	0.333	0.333	0.333	0.333	0.333	0.333	6.327	1.4595	3.482	18	102	0.700619195398646	0	1
"103"	18	11	2	0	0	0	7	1	1	2.252	-2.6266	6.0405	-2.0767	5.0368	-3.6451	0.4178	8.3558	3.96	0.4539	-2.2031	-6.8487	2.3635	6.8415	-5.6731	-10.0756	-5.4368	5.9704	-2.4929	0.511	1.6969	0.2054	0.5026	0.2864	0.4316	0.395	0.2057	0.2889	0.4556	0.2743	0.5173	0.2122	0.3508	0.3797	0.2515	0.5057	0.3002	0.2403	0.2089	0.3195	6.3315	1.6096	3.8696	18	103	0.811818710277444	1	0
"104"	18	57	2	-4	-6.8	1	5	-1	1	1.506	-6.9595	-3.5802	-2.4507	-7.4533	-4.3437	-7.9267	-2.2449	-4.1211	1.8103	-1.6664	-7.9573	-9.6426	-18.6036	-5.2541	-8.0253	-15.7852	-14.1013	-4.2567	-5.8787	-9.0316	0.333	0.333	0.333	0.333	0.333	0.333	0.333	0.333	0.333	0.333	0.333	0.333	0.333	0.333	0.333	0.333	0.333	0.333	0.333	6.327	1.7024	3.2237	18	104	0.409457129377702	0	1
"105"	18	12	2	1	1.7	0	6	1	1	2.065	0.105	7.3278	0.1476	5.9182	4.8635	-2.3717	1.678	-2.3252	-1.9703	-2.1541	0.7646	-1.322	3.7152	-2.1197	-0.6121	-2.3499	18.9432	1.0117	3.1162	2.2364	0.3605	0.2922	0.4005	0.3634	0.4292	0.2888	0.2097	0.5053	0.2667	0.3857	0.2258	0.2658	0.3659	0.2521	0.4242	0.3016	0.3415	0.2117	0.4267	6.3174	1.4384	3.516	18	105	0.725130226412996	1	0
"106"	18	38	2	-1	-1.7	0	6	-1	1	1.849	-4.6992	-11.7563	-7.2087	3.404	0.6894	4.3824	-0.8468	-8.4469	-2.2219	-3.5581	2.4895	6.4044	-2.6239	-2.9712	-3.3828	-10.4941	-0.5199	-0.0652	3.0986	4.762	0.2037	0.2321	0.3915	0.2837	0.495	0.3329	0.3789	0.2059	0.2931	0.217	0.4857	0.5128	0.2272	0.5082	0.3973	0.2163	0.2798	0.3584	0.3145	6.3339	1.4238	3.2826	18	106	0.614644952404988	0	1
"107"	18	27	2	2	3.4	0	5	1	1	1.528	6.1766	2.1474	2.322	12.7033	6.598	1.5359	6.6228	-3.5671	4.6287	-4.2402	-3.1685	3.9255	1.1489	11.0991	8.4199	0.1766	11.099	-0.8902	3.7624	-1.1503	0.2397	0.5256	0.3741	0.2895	0.4837	0.2597	0.3346	0.3809	0.2958	0.2204	0.4013	0.2272	0.2691	0.3525	0.2988	0.4458	0.3124	0.3735	0.242	6.3267	1.4508	2.9791	18	107	0.423959690744329	1	0
"108"	18	69	2	2	3.4	0	7	1	1	2.321	6.5747	-0.8808	13.5858	3.5526	5.9278	9.3095	-3.3943	3.5104	8.703	-6.167	6.8013	5.4203	2.3103	2.5811	6.2579	1.5696	-2.2881	-3.0929	9.0884	0.2519	0.318	0.2057	0.3542	0.5242	0.3156	0.4211	0.3012	0.4025	0.2596	0.3568	0.2141	0.3638	0.4758	0.2164	0.4197	0.2143	0.3764	0.2665	0.3299	6.336	1.642	3.9721	18	108	0.8419981272923	1	0
"109"	18	22	2	-4	-6.8	0	4	-1	1	1.272	-6.7966	-11.6063	-4.501	-9.7368	-5.1677	-4.9242	-5.7744	-9.7242	-16.7929	-6.4017	2.4974	0.0049	-3.6948	-12.9686	-0.7403	-11.734	-11.7192	-3.6663	-11.3918	-1.5832	0.2327	0.4652	0.2513	0.3562	0.2078	0.4714	0.2925	0.4437	0.4829	0.3808	0.3181	0.2066	0.2507	0.2861	0.4108	0.2031	0.2388	0.3711	0.4636	6.3334	1.5904	2.8557	18	109	0.24059046491793	0	1
"110"	18	5	2	1	1.7	1	7	1	1	2.132	-2.9153	1.4235	5.6826	-4.5202	2.465	-2.834	4.403	10.1126	4.8093	3.285	-1.3156	6.7733	-4.3326	2.5752	12.2301	-3.5908	-7.4792	2.7728	2.4921	3.3711	0.333	0.333	0.333	0.333	0.333	0.333	0.333	0.333	0.333	0.333	0.333	0.333	0.333	0.333	0.333	0.333	0.333	0.333	0.333	6.327	1.5759	3.7158	18	110	0.757060506303598	1	0
"111"	18	63	2	4	6.8	1	5	1	1	1.396	11.3852	4.064	3.9767	12.3152	8.1833	1.4465	12.4074	11.2828	5.9586	3.2997	-2.4018	11.228	8.7937	9.223	9.7487	-3.9824	1.5517	10.9821	4.26	11.8336	0.333	0.333	0.333	0.333	0.333	0.333	0.333	0.333	0.333	0.333	0.333	0.333	0.333	0.333	0.333	0.333	0.333	0.333	0.333	6.327	1.6022	3.0131	18	111	0.333611004340181	1	0
"112"	18	43	2	-4	-6.8	1	4	-1	1	1	-5.8611	-4.3142	-6.6071	-2.326	-10.1507	-10.7072	-12.5771	-7.0533	-6.8899	-1.3711	-0.7009	-11.2917	-6.7182	2.1114	-7.134	-13.0126	-2.1812	-9.3182	-0.7356	-17.2308	0.333	0.333	0.333	0.333	0.333	0.333	0.333	0.333	0.333	0.333	0.333	0.333	0.333	0.333	0.333	0.333	0.333	0.333	0.333	6.327	1.4415	2.451	18	112	0	0	1
"113"	18	28	2	4	6.8	0	4	1	1	1.12	3.4463	12.2388	3.2882	7.2231	-2.0635	10.5648	0.7316	9.955	3.8671	3.6854	9.7754	8.0489	6.3901	8.5505	-3.5171	12.2065	8.7163	6.1268	9.7693	16.4462	0.2259	0.2881	0.3715	0.3136	0.4301	0.3193	0.209	0.3391	0.2869	0.3405	0.2573	0.2142	0.3505	0.4736	0.3798	0.4253	0.3354	0.2711	0.4996	6.3309	1.7153	2.8539	18	113	0.113328685307003	1	0
"114"	18	59	2	-1	-1.7	1	4	-1	1	1.061	-4.9654	-4.4651	0.46	7.5973	-3.1177	-10.2042	4.8381	-4.4404	-4.8931	-1.8853	-1.682	4.0228	-3.9084	7.6297	-5.4158	-9.524	0.5651	-0.4862	-0.4239	-4.341	0.333	0.333	0.333	0.333	0.333	0.333	0.333	0.333	0.333	0.333	0.333	0.333	0.333	0.333	0.333	0.333	0.333	0.333	0.333	6.327	1.4159	2.4948	18	114	0.059211859631846	0	1
"115"	18	30	2	-2	-3.4	1	4	-1	1	1.047	-3.529	-8.7535	2.193	-10.728	-5.3811	-0.3177	1.4666	0.2722	-2.0292	0.843	5.1051	-12.912	-4.5728	0.7139	-10.9005	-0.2624	-5.516	-1.1639	-4.5948	-7.7899	0.333	0.333	0.333	0.333	0.333	0.333	0.333	0.333	0.333	0.333	0.333	0.333	0.333	0.333	0.333	0.333	0.333	0.333	0.333	6.327	1.5908	2.6479	18	115	0.0459289318883997	0	1
"116"	18	66	2	-1	-1.7	0	6	-1	1	1.625	-1.4675	-3.7666	-3.0283	-2.9666	1.9127	-2.3424	-7.8693	2.9978	5.2475	8.6892	-5.1875	-1.7441	-10.2205	-4.6829	-9.6884	2.5818	-5.5477	-0.5284	0.1527	3.3899	0.2062	0.2316	0.3574	0.2282	0.4677	0.4051	0.4457	0.3512	0.2511	0.4599	0.4115	0.3408	0.3671	0.4315	0.373	0.2357	0.2962	0.2563	0.2207	6.337	1.5874	3.2257	18	116	0.485507815781701	0	1
"117"	18	35	2	4	6.8	1	5	1	1	1.372	7.7351	7.3427	-0.4366	8.157	11.4126	7.5439	5.8761	14.932	11.2448	6.1476	7.2134	4.9929	7.2711	12.5079	3.6818	9.4598	-6.7863	9.9638	6.9713	-0.621	0.333	0.333	0.333	0.333	0.333	0.333	0.333	0.333	0.333	0.333	0.333	0.333	0.333	0.333	0.333	0.333	0.333	0.333	0.333	6.327	1.6866	3.0727	18	117	0.316269529303694	1	0
"118"	18	70	2	4	6.8	0	5	1	1	1.591	3.4442	1.8878	4.8621	6.0767	-0.7542	4.869	12.8291	10.5176	14.1661	7.5693	4.8729	7.2256	7.0068	1.8194	2.9623	0.6068	14.8166	8.6251	17.4155	6.6825	0.2887	0.2086	0.5296	0.224	0.3854	0.3214	0.2486	0.3152	0.2064	0.3367	0.2878	0.3938	0.3363	0.2259	0.4067	0.2229	0.5129	0.3796	0.4887	6.3193	1.4714	3.0749	18	118	0.46436274935565	1	0
"119"	18	13	2	2	3.4	0	4	1	1	1.306	3.6404	7.8464	2.3618	9.5789	1.1963	4.4653	2.5787	-0.9486	8.069	4.1226	4.247	-6.2206	-0.2954	9.3096	1.2168	-7.0469	1.1972	1.9277	12.24	8.8819	0.2564	0.4526	0.202	0.4532	0.3796	0.2042	0.2698	0.4322	0.3897	0.2034	0.4318	0.2544	0.2102	0.322	0.4002	0.5105	0.2198	0.3035	0.4392	6.3349	1.4489	2.7561	18	119	0.266969030854239	1	0
"120"	18	17	2	-1	-1.7	1	5	-1	1	1.579	-6.1473	1.8349	-5.8778	-10.3152	-0.3587	6.7314	-0.1808	-6.5537	-4.8571	-3.266	-8.1314	-4.1897	0.4321	0.6544	-3.7383	7.9768	4.9197	-4.256	-2.3811	2.432	0.333	0.333	0.333	0.333	0.333	0.333	0.333	0.333	0.333	0.333	0.333	0.333	0.333	0.333	0.333	0.333	0.333	0.333	0.333	6.327	1.4482	3.0297	18	120	0.456791735273505	0	1
"121"	18	1	2	-4	-6.8	1	4	-1	1	1.183	-5.9063	-0.3972	-6.5193	-2.8337	-5.0617	-9.1	-1.2158	-7.0679	-12.2229	-8.1275	-5.0016	-7.1672	-13.5633	-19.1458	-0.7311	-13.1028	-4.3819	-6.0738	-8.9865	0.521	0.333	0.333	0.333	0.333	0.333	0.333	0.333	0.333	0.333	0.333	0.333	0.333	0.333	0.333	0.333	0.333	0.333	0.333	0.333	6.327	1.5738	2.7673	18	121	0.16805358499625	0	1
"122"	18	45	2	-1	-1.7	1	4	-1	1	1.252	-4.1236	-2.4039	-5.1486	3.8965	-0.4053	-3.7589	-1.7796	6.8614	1.3094	-10.5882	-2.3438	-4.2124	-2.26	8.1995	-7.1557	3.0075	0.7119	-0.3348	-1.9662	-10.7881	0.333	0.333	0.333	0.333	0.333	0.333	0.333	0.333	0.333	0.333	0.333	0.333	0.333	0.333	0.333	0.333	0.333	0.333	0.333	6.327	1.5974	2.8526	18	122	0.224742272677907	0	1
"123"	18	26	2	1	1.7	0	4	1	1	1.039	5.4085	2.5064	6.9766	0.2365	-2.3823	-1.5365	2.4405	-0.9734	-3.6676	-7.9163	-3.3279	7.3024	-1.3852	5.5548	1.9534	-0.9375	-0.4136	5.2898	13.8378	5.949	0.2002	0.2705	0.3576	0.4537	0.5265	0.2316	0.4708	0.2249	0.3195	0.2932	0.4749	0.3449	0.2068	0.3664	0.3306	0.2572	0.3373	0.4454	0.2121	6.3244	1.4952	2.5393	18	123	0.0382587121170903	1	0
"124"	18	41	2	2	3.4	0	6	1	1	1.877	7.5116	11.9445	1.357	1.7278	8.6349	2.6374	4.8196	-5.47	7.5385	0.2542	-0.4496	0.5335	-5.1294	1.7368	4.8614	5.904	6.3342	-5.4437	9.1415	7.7181	0.3834	0.2746	0.3398	0.5158	0.2067	0.3592	0.3036	0.2538	0.2107	0.3807	0.3261	0.5295	0.256	0.3266	0.2064	0.2589	0.2321	0.5293	0.4251	6.3182	1.6299	3.5106	18	124	0.629674757604372	1	0
"125"	18	20	2	2	3.4	1	4	1	1	1.054	5.4161	7.0489	6.7366	-3.051	1.6192	1.4693	-0.942	-1.4605	-4.4931	2.7895	2.8383	-1.7719	6.3143	-1.204	3.9696	8.6926	0.4026	10.0149	14.0526	8.2448	0.333	0.333	0.333	0.333	0.333	0.333	0.333	0.333	0.333	0.333	0.333	0.333	0.333	0.333	0.333	0.333	0.333	0.333	0.333	6.327	1.5811	2.6379	18	125	0.0525924501191706	1	0
"126"	18	48	2	2	3.4	1	7	1	1	2.322	-0.8971	3.2203	-0.4834	-10.5729	10.7351	-0.7458	6.6827	1.9119	-0.4195	4.0657	2.9581	6.8573	3.7717	8.2066	2.1526	12.1726	3.688	7.4213	3.52	2.5228	0.333	0.333	0.333	0.333	0.333	0.333	0.333	0.333	0.333	0.333	0.333	0.333	0.333	0.333	0.333	0.333	0.333	0.333	0.333	6.327	1.7111	4.0558	18	126	0.8424288832757	1	0
"127"	18	50	2	-4	-6.8	0	4	-1	1	1.226	-10.0823	-9.3409	-8.9142	1.6611	-9.3437	0.3033	-4.9318	-15.4454	-10.1189	-11.3777	-5.2073	-3.4572	-6.1908	-2.0053	-1.1233	-12.9479	-6.5719	-13.9355	1.6077	-7.0556	0.3011	0.378	0.5319	0.3365	0.4288	0.2212	0.3935	0.2091	0.3294	0.2934	0.4078	0.4871	0.2726	0.343	0.2609	0.295	0.2004	0.2881	0.3582	6.3358	1.7159	2.9605	18	127	0.20375683751402	0	1
"128"	18	42	2	4	6.8	0	6	1	1	1.47	5.1182	-2.1978	3.5349	4.3258	8.8102	11.8705	1.7643	5.0848	6.5854	10.6896	9.0759	-0.6062	15.2592	9.1301	2.087	13.6808	5.0068	1.8501	14.3272	11.7711	0.235	0.2728	0.3157	0.2878	0.2178	0.2569	0.5219	0.429	0.3083	0.2654	0.4605	0.2167	0.4136	0.3073	0.3472	0.2139	0.4684	0.375	0.4181	6.3311	1.4858	2.9708	18	128	0.385262400790645	1	0
"129"	18	68	2	1	1.7	0	7	1	1	1.871	-0.1064	7.0509	9.0486	0.8968	11.6488	10.1894	-1.1248	1.6788	3.2732	-0.2794	-0.4191	-1.3284	-6.507	1.3122	-3.2374	-2.4722	0.5045	-3.3912	8.8246	0.0566	0.3747	0.227	0.2938	0.2251	0.4201	0.2148	0.3206	0.2633	0.3863	0.4972	0.2126	0.5134	0.3882	0.2036	0.5246	0.2607	0.3017	0.4901	0.21	6.328	1.5888	3.4719	18	129	0.626473047291953	1	0
"130"	18	47	2	1	1.7	1	5	-1	0	1.636	2.3765	-2.0982	0.1888	-2.8167	-1.4121	5.1363	-6.1351	2.8812	3.8883	11.3863	12.2749	2.5799	-0.1576	-2.8256	6.0423	1.5367	-7.2242	2.6526	0.137	6.7955	0.333	0.333	0.333	0.333	0.333	0.333	0.333	0.333	0.333	0.333	0.333	0.333	0.333	0.333	0.333	0.333	0.333	0.333	0.333	6.327	1.4623	3.1033	18	130	0.492254238180555	0	1
"131"	18	53	2	0	0	0	8	-1	0	2.752	4.7156	1.8085	3.5685	-4.5705	-2.1859	11.8266	-4.3482	5.5279	-0.3564	-1.8053	-5.148	5.3464	2.5242	-2.433	-1.3014	0.203	3.2699	-1.7594	-11.8533	-2.7733	0.3379	0.275	0.4392	0.2644	0.4478	0.3501	0.4353	0.2407	0.2857	0.3226	0.2431	0.5032	0.2422	0.3117	0.4574	0.2765	0.4434	0.2016	0.2484	6.326	1.6274	4.3863	18	131	1.0123279200711	0	1
"132"	18	64	2	-4	-6.8	0	5	-1	1	1.608	-5.5579	-13.1441	-3.5162	-8.5872	-3.5292	-7.3427	-14.8248	-4.1357	-2.3813	-3.3907	-10.3672	-5.9444	-4.6176	-15.5694	3.9325	-3.7961	-8.9836	-5.2135	-3.962	-15.4608	0.5239	0.3366	0.2271	0.2848	0.4391	0.2358	0.4067	0.2494	0.2199	0.2837	0.3798	0.2422	0.3308	0.4084	0.2546	0.4611	0.3328	0.4727	0.2377	6.3272	1.6877	3.3092	18	132	0.474991170756775	0	1
"133"	18	46	2	0	0	1	7	-1	1	2.167	-0.5238	8.3219	-10.4389	-1.3837	0.5665	-2.1273	1.91	-10.6659	0.1956	-1.654	3.706	4.6397	-7.2803	-3.4985	-0.0968	3.0728	5.9763	5.4869	0.1467	3.4166	0.333	0.333	0.333	0.333	0.333	0.333	0.333	0.333	0.333	0.333	0.333	0.333	0.333	0.333	0.333	0.333	0.333	0.333	0.333	6.327	1.621	3.8015	18	133	0.773343722554222	0	1
"134"	18	60	2	0	0	1	10	-1	1	3.167	-2.4793	5.1383	4.8901	-8.3371	2.9773	-4.7431	5.7208	4.7457	2.0352	8.7287	-6.7445	-5.6469	-4.663	1.6452	-1.8154	-3.3789	0.8586	1.9383	-5.6586	6.5207	0.333	0.333	0.333	0.333	0.333	0.333	0.333	0.333	0.333	0.333	0.333	0.333	0.333	0.333	0.333	0.333	0.333	0.333	0.333	6.327	1.469	4.6345	18	134	1.1527847675565	0	1
"135"	18	49	2	4	6.8	1	5	1	1	1.612	4.8381	2.6073	18.7883	4.994	4.7079	3.4466	-1.7717	7.6081	7.9793	1.2522	4.9696	9.7082	6.5865	6.0216	11.6272	2.5981	3.3178	12.3176	9.2205	16.7565	0.333	0.333	0.333	0.333	0.333	0.333	0.333	0.333	0.333	0.333	0.333	0.333	0.333	0.333	0.333	0.333	0.333	0.333	0.333	6.327	1.4053	3.0294	18	135	0.477475644084437	1	0
"136"	18	21	2	4	6.8	1	5	1	1	1.554	2.6455	19.3532	9.6852	9.0807	8.59	3.835	7.1152	10.938	12.6709	-1.5142	-2.5675	4.2802	6.673	10.1893	4.2704	7.4138	7.5869	6.0553	1.4068	8.678	0.333	0.333	0.333	0.333	0.333	0.333	0.333	0.333	0.333	0.333	0.333	0.333	0.333	0.333	0.333	0.333	0.333	0.333	0.333	6.327	1.5209	3.0713	18	136	0.440832251945456	1	0
"137"	18	33	2	1	1.7	1	4	-1	0	1.232	-2.7026	1.7357	0.5659	9.933	-7.3968	0.7422	0.2136	8.6863	-5.0719	-3.7668	8.3305	-0.8068	3.4735	9.2391	1.0729	-2.2418	7.7408	1.7495	0.3318	0.7388	0.333	0.333	0.333	0.333	0.333	0.333	0.333	0.333	0.333	0.333	0.333	0.333	0.333	0.333	0.333	0.333	0.333	0.333	0.333	6.327	1.4569	2.6997	18	137	0.208638865111328	0	1
"138"	18	40	2	1	1.7	0	10	1	1	3.188	4.609	7.0458	8.7483	0.6188	-8.2553	-1.6588	1.252	4.4092	3.4666	1.8809	2.5996	-2.1282	-3.7354	-4.7702	10.3959	2.3434	4.3823	2.6885	6.1242	-7.5024	0.4053	0.2147	0.5043	0.3417	0.2176	0.4309	0.2019	0.2676	0.3203	0.2897	0.2248	0.4745	0.3811	0.2887	0.3919	0.4857	0.2097	0.4563	0.2105	6.3173	1.5685	4.7554	18	138	1.15939376092797	1	0
"139"	18	52	2	-1	-1.7	0	5	-1	1	1.351	-2.2939	-3.144	-3.4446	0.1632	9.1901	3.3025	-4.79	-1.4903	-3.4203	-6.9911	9.1028	-4.1566	4.6796	-5.1535	-5.6941	-5.4207	2.7552	-6.7794	-5.8708	-4.532	0.4212	0.2264	0.2857	0.3494	0.4306	0.2557	0.42	0.2194	0.3863	0.2225	0.4485	0.4948	0.2534	0.2871	0.2359	0.4199	0.2043	0.3945	0.3692	6.3248	1.6183	2.9847	18	139	0.300845058978062	0	1
"140"	18	8	2	-4	-6.8	0	4	-1	1	1.334	-6.2929	-4.459	-19.0807	-12.7394	-5.9958	0.7966	-6.8846	-5.0698	-11.9252	-9.0936	-9.9336	-2.3212	-1.849	-5.1216	-10.8484	0.3324	-0.6429	-7.312	-4.0743	-12.2321	0.3574	0.2071	0.4317	0.3798	0.2421	0.3391	0.2942	0.2609	0.4069	0.2584	0.3703	0.489	0.2419	0.3301	0.227	0.515	0.4535	0.2708	0.2426	6.318	1.688	3.0352	18	140	0.288181947493432	0	1
"141"	18	22	3	-4	-6.8	0	6	-1	1	1.405	-6.3354	-10.6101	-6.4675	-4.875	-9.7322	1.7808	0.8661	-9.7402	-8.0272	-7.3066	-10.472	1.7243	-1.2576	-9.4425	-13.2107	-12.0054	-0.7816	-4.8749	-13.1388	-11.0019	0.2259	0.418	0.2241	0.3045	0.2066	0.3094	0.2068	0.338	0.4221	0.2419	0.317	0.3772	0.4632	0.3839	0.3255	0.3688	0.4306	0.3077	0.4643	6.3356	1.5562	2.9726	18	141	0.340037302785709	0	1
"142"	18	56	3	4	6.8	0	5	1	1	1.468	2.6063	1.4171	8.9397	12.8618	4.2222	4.6016	-3.891	13.1444	14.0006	9.9561	7.2218	1.3414	8.535	4.3852	1.9202	15.2877	8.5789	8.5902	7.7905	4.0075	0.4283	0.2236	0.4643	0.3472	0.2528	0.2843	0.5254	0.4196	0.2309	0.203	0.3027	0.218	0.3325	0.5111	0.2102	0.4631	0.2408	0.3573	0.3051	6.3203	1.5326	3.0023	18	142	0.383900930192324	1	0
"143"	18	17	3	-1	-1.7	1	4	-1	1	1.061	-5.5388	-6.7552	-1.6893	-5.2744	-9.9595	-4.6116	4.951	1.6158	-0.1158	-0.7548	4.3612	4.1334	-0.3468	-1.8877	-0.2954	4.2145	1.8355	1.902	-9.8166	-10.083	0.333	0.333	0.333	0.333	0.333	0.333	0.333	0.333	0.333	0.333	0.333	0.333	0.333	0.333	0.333	0.333	0.333	0.333	0.333	6.327	1.6728	2.745	18	143	0.059211859631846	0	1
"144"	18	67	3	0	0	0	5	1	0	1.872	2.2086	2.7364	-3.274	-1.0324	4.1084	-3.2194	0.2729	-2.1832	-5.6981	-1.2547	-2.8847	0.959	-11.1494	2.7279	-5.3207	12.3404	2.8878	-0.9789	3.5797	6.0949	0.4156	0.3833	0.4572	0.2135	0.5136	0.2844	0.2	0.4292	0.3369	0.468	0.3101	0.4096	0.2853	0.2487	0.2057	0.264	0.3489	0.2435	0.3083	6.3258	1.4828	3.3555	18	144	0.6270073780554	1	0
"145"	18	9	3	-2	-3.4	0	8	-1	1	2.337	0.2008	4.9999	3.9897	-5.5088	-4.9495	-0.4888	-0.1392	-2.7558	-10.3252	-5.9901	-6.4763	-4.1307	-6.3927	-4.1364	-9.4625	1.2915	-13.2566	0.6298	3.7936	-8.7374	0.2574	0.219	0.2482	0.3348	0.2247	0.3987	0.5327	0.2415	0.4154	0.2052	0.5151	0.3256	0.4173	0.3157	0.4206	0.2166	0.3408	0.3054	0.4019	6.3365	1.5655	3.9048	18	145	0.848868055556721	0	1
"146"	18	28	3	4	6.8	0	5	1	1	1.426	4.8126	6.4817	2.6495	10.2016	-2.2818	5.0761	-0.1059	9.4276	8.5606	6.739	6.0949	-3.9336	5.2591	11.4164	12.4878	8.2215	12.3634	6.0351	11.5592	15.6262	0.3581	0.2723	0.3764	0.2971	0.2031	0.4108	0.216	0.3604	0.4143	0.3393	0.2012	0.5236	0.3722	0.4224	0.2426	0.3485	0.4502	0.2102	0.3111	6.3296	1.4655	2.8934	18	146	0.354873321992104	1	0
"147"	18	34	3	2	3.4	1	8	1	1	2.571	5.3177	8.3618	-4.7363	5.2812	-4.8289	9.4771	8.7801	4.0169	-0.0979	7.6554	1.6376	5.5028	-0.6586	-6.5264	4.5678	9.5722	8.019	3.0042	5.5997	-1.3751	0.333	0.333	0.333	0.333	0.333	0.333	0.333	0.333	0.333	0.333	0.333	0.333	0.333	0.333	0.333	0.333	0.333	0.333	0.333	6.327	1.4953	4.0716	18	147	0.944294928283752	1	0
"148"	18	68	3	1	1.7	0	7	1	1	2.033	-2.9179	8.986	3.4489	4.7633	0.2734	6.1228	1.2049	-5.8529	-9.8316	9.0809	0.438	3.8069	1.0364	2.6551	6.1593	-6.3827	1.9036	0.4818	7.1031	0.0168	0.2027	0.3748	0.3002	0.2676	0.519	0.2061	0.5144	0.4221	0.2318	0.3198	0.3741	0.4685	0.2329	0.2583	0.2053	0.4935	0.3087	0.268	0.3624	6.3303	1.6931	3.7341	18	148	0.70951253464621	1	0
"149"	18	10	3	-1	-1.7	0	6	-1	1	2.036	0.346	-2.9682	1.0904	-1.6523	-9.6245	2.3095	4.2943	-9.2553	0.6283	-9.2604	5.4934	1.5494	-5.2787	-9.9829	5.2986	4.9716	-2.6943	-3.4354	-1.433	-3.4949	0.2573	0.5327	0.31	0.4991	0.3273	0.2382	0.4543	0.2772	0.2027	0.2971	0.3858	0.2578	0.4075	0.2057	0.3002	0.429	0.2002	0.4093	0.3358	6.3269	1.6547	3.6869	18	149	0.710987098688276	0	1
"150"	18	30	3	-2	-3.4	1	5	-1	1	1.525	-4.9787	-12.2228	-0.5816	-4.4163	-5.1354	2.2051	-8.5124	-2.142	-12.8989	-3.9719	-8.152	-1.7471	5.3062	2.138	1.3736	-0.2815	2.5135	-8.7463	-2.7486	-4.065	0.333	0.333	0.333	0.333	0.333	0.333	0.333	0.333	0.333	0.333	0.333	0.333	0.333	0.333	0.333	0.333	0.333	0.333	0.333	6.327	1.6062	3.1422	18	150	0.421994410059375	0	1
"151"	18	7	3	4	6.8	1	4	1	1	1.311	11.1377	3.5163	11.064	8.6202	2.9982	5.471	5.4107	8.613	9.8656	-4.5622	-0.8228	11.8873	0.4117	5.693	13.9485	12.2577	11.2379	9.929	0.5349	8.9185	0.333	0.333	0.333	0.333	0.333	0.333	0.333	0.333	0.333	0.333	0.333	0.333	0.333	0.333	0.333	0.333	0.333	0.333	0.333	6.327	1.688	3.0122	18	151	0.270790204781563	1	0
"152"	18	57	3	-4	-6.8	1	3	-1	1	0.913	-5.0083	-6.0525	-9.9462	-3.4176	-16.1599	-3.9315	-11.4558	-1.5073	-7.2728	-14.7808	-2.646	-12.106	-10.8125	-8.5118	-10.4503	-3.3692	-0.1666	2.1483	-8.0505	-0.7902	0.333	0.333	0.333	0.333	0.333	0.333	0.333	0.333	0.333	0.333	0.333	0.333	0.333	0.333	0.333	0.333	0.333	0.333	0.333	6.327	1.5583	2.4808	18	152	-0.0910193983871685	0	1
"153"	18	60	3	0	0	1	6	-1	0	1.733	0.1862	-6.7546	3.8815	0.63	3.6927	-0.6667	-12.1373	-1.9642	0.4969	5.8758	-8.5359	8.1757	2.7131	-0.0786	2.9766	5.1131	-4.936	0.1034	0.6641	0.9251	0.333	0.333	0.333	0.333	0.333	0.333	0.333	0.333	0.333	0.333	0.333	0.333	0.333	0.333	0.333	0.333	0.333	0.333	0.333	6.327	1.5998	3.3502	18	153	0.549854010733469	0	1
"154"	18	18	3	0	0	1	8	-1	1	2.518	-4.2275	-1.1544	-9.985	1.2806	3.423	-2.0423	-6.4058	8.1178	3.6549	0.2372	10.21	-3.6201	7.1515	0.3435	2.0339	-2.8006	-1.4251	-1.5748	-3.786	0.8904	0.333	0.333	0.333	0.333	0.333	0.333	0.333	0.333	0.333	0.333	0.333	0.333	0.333	0.333	0.333	0.333	0.333	0.333	0.333	6.327	1.4986	4.0352	18	154	0.923464935622155	0	1
"155"	18	6	3	2	3.4	1	7	1	1	2.07	1.4091	10.7277	10.9634	-0.9935	-3.704	4.0821	2.3373	-4.2421	6.4199	5.8553	-2.8697	2.7603	-1.3853	8.3113	9.2128	1.7412	8.5135	4.0655	-2.3285	7.5958	0.333	0.333	0.333	0.333	0.333	0.333	0.333	0.333	0.333	0.333	0.333	0.333	0.333	0.333	0.333	0.333	0.333	0.333	0.333	6.327	1.6793	3.7542	18	155	0.727548607277278	1	0
"156"	18	32	3	0	0	1	7	1	0	2.194	-2.1612	2.958	-5.1818	3.5394	7.2112	0.9715	1.9932	5.6554	-11.2521	-4.3882	5.2545	2.0413	0.2118	-0.631	4.4471	4.4811	-8.4348	-7.0799	1.0274	0.4793	0.333	0.333	0.333	0.333	0.333	0.333	0.333	0.333	0.333	0.333	0.333	0.333	0.333	0.333	0.333	0.333	0.333	0.333	0.333	6.327	1.5015	3.7113	18	156	0.785726361853038	1	0
"157"	18	1	3	-4	-6.8	1	4	-1	1	1.199	-9.1695	-3.0821	-1.5128	-11.4512	-4.6071	-4.3524	-7.1253	-5.8926	-11.5171	0.1421	-13.8529	2.1498	-17.7883	-8.7871	-5.7311	-8.9045	-5.9423	-3.7981	-2.8236	-12.3654	0.333	0.333	0.333	0.333	0.333	0.333	0.333	0.333	0.333	0.333	0.333	0.333	0.333	0.333	0.333	0.333	0.333	0.333	0.333	6.327	1.5009	2.7002	18	157	0.181487876045377	0	1
"158"	18	49	3	4	6.8	1	4	1	1	1.259	5.5877	13.4128	6.96	5.5624	12.7497	3.6414	5.4296	4.796	11.4529	4.2182	10.9038	4.0294	-7.1809	2.2717	9.4806	7.7669	8.5153	11.3955	1.8583	13.7345	0.333	0.333	0.333	0.333	0.333	0.333	0.333	0.333	0.333	0.333	0.333	0.333	0.333	0.333	0.333	0.333	0.333	0.333	0.333	6.327	1.4344	2.6926	18	158	0.23031775506221	1	0
"159"	18	2	3	-2	-3.4	1	3	-1	1	0.864	-6.5623	-18.7742	-5.9126	-3.0209	-0.298	2.3488	-8.0681	-2.6584	2.2582	-0.3596	-1.3273	-3.079	-3.8481	-1.782	1.9992	3.714	-5.9587	-5.6861	-5.0053	-6.2993	0.333	0.333	0.333	0.333	0.333	0.333	0.333	0.333	0.333	0.333	0.333	0.333	0.333	0.333	0.333	0.333	0.333	0.333	0.333	6.327	1.4834	2.3477	18	159	-0.146182510178081	0	1
"160"	18	37	3	-2	-3.4	0	11	-1	1	3.583	-0.7628	-6.3431	0.9439	-3.4955	4.2827	-8.6888	1.7428	-5.5308	4.8187	-3.4025	-2.5607	-0.6334	-10.7946	4.2794	-2.5371	-10.7902	-3.1648	-10.3971	-6.1347	-8.0502	0.3131	0.4829	0.3941	0.3359	0.2497	0.3818	0.346	0.203	0.2514	0.4709	0.4426	0.2916	0.2259	0.2991	0.341	0.2218	0.2866	0.3321	0.4586	6.3282	1.6862	5.2668	18	160	1.27620043832282	0	1
"161"	18	61	3	1	1.7	1	7	1	1	2.036	5.9577	2.07	6.6787	1.8727	4.6037	9.898	-0.8982	-0.1298	3.8419	2.8721	-0.5556	0.7578	11.5473	-8.8026	-1.1655	-4.7678	6.79	-1.2872	-5.4065	0.1681	0.333	0.333	0.333	0.333	0.333	0.333	0.333	0.333	0.333	0.333	0.333	0.333	0.333	0.333	0.333	0.333	0.333	0.333	0.333	6.327	1.6093	3.6531	18	161	0.710987098688276	1	0
"162"	18	27	3	2	3.4	0	8	1	1	2.275	1.1366	2.6018	1.325	0.6755	2.9845	2.1619	19.7768	-0.6149	1.9517	8.5106	3.8761	-1.0879	8.5567	5.57	2.0467	5.7026	1.5551	1.6147	3.9954	-5.8193	0.3447	0.228	0.3896	0.3055	0.4255	0.219	0.3503	0.2175	0.3917	0.2821	0.3755	0.2711	0.5092	0.2883	0.2197	0.3144	0.4162	0.4914	0.2847	6.3243	1.6392	3.9093	18	162	0.821980052402914	1	0
"163"	18	42	3	4	6.8	0	6	1	1	1.722	4.398	2.4437	10.321	3.6539	7.0483	9.2118	8.0951	9.8132	4.4885	-0.5339	20.0447	10.1716	4.8104	3.4618	5.3809	8.8727	9.1825	12.0519	-3.1067	7.4251	0.3976	0.3472	0.408	0.3124	0.2359	0.404	0.2144	0.2406	0.3015	0.2755	0.4302	0.2597	0.3273	0.2679	0.4555	0.2228	0.2979	0.4405	0.4961	6.3349	1.4953	3.2399	18	163	0.543486406005539	1	0
"164"	18	62	3	2	3.4	1	5	1	1	1.625	1.8401	-0.0194	6.9273	9.5749	-3.9608	6.1054	-6.1759	4.9512	9.8385	5.1308	6.168	0.2345	-0.471	9.4049	4.8073	6.8165	-0.2392	3.6473	-6.0839	8.9223	0.333	0.333	0.333	0.333	0.333	0.333	0.333	0.333	0.333	0.333	0.333	0.333	0.333	0.333	0.333	0.333	0.333	0.333	0.333	6.327	1.5591	3.1929	18	164	0.485507815781701	1	0
"165"	18	5	3	1	1.7	1	8	1	1	2.386	0.2162	5.4106	7.0617	-6.2323	-7.7629	1.028	2.593	1.813	2.5472	6.2733	4.8111	3.7197	9.1903	9.5462	-3.1125	6.2099	-0.6731	-3.0389	-3.9574	-2.3445	0.333	0.333	0.333	0.333	0.333	0.333	0.333	0.333	0.333	0.333	0.333	0.333	0.333	0.333	0.333	0.333	0.333	0.333	0.333	6.327	1.7118	4.1203	18	165	0.869618323675724	1	0
"166"	18	40	3	1	1.7	0	5	1	1	1.855	4.9949	-1.5436	3.3726	4.2805	2.3798	0.1841	-3.422	-0.9391	8.476	1.1781	7.6806	2.9341	3.0272	9.6138	-6.5627	-7.4901	8.8183	-3.6201	3.9966	-4.0004	0.3826	0.4796	0.4119	0.3372	0.3089	0.2013	0.4086	0.3018	0.3942	0.4572	0.2143	0.4548	0.2801	0.455	0.2166	0.2669	0.2248	0.3055	0.2251	6.3264	1.5722	3.439	18	166	0.617884696059398	1	0
"167"	18	65	3	-2	-3.4	0	6	-1	1	1.761	-2.6871	0.8004	-9.0248	0.1255	-5.5095	1.8918	-4.7034	-9.9281	2.6727	-2.4505	-6.8675	-6.5556	2.5026	-0.5001	1.2963	0.1362	-17.1878	-4.4412	-4.6376	-2.7799	0.3332	0.2897	0.4111	0.2121	0.5094	0.3953	0.2847	0.253	0.2007	0.4602	0.4314	0.2834	0.3338	0.2442	0.3551	0.2824	0.2108	0.5035	0.3297	6.3237	1.7214	3.4953	18	167	0.565881829514069	0	1
"168"	18	48	3	2	3.4	1	5	1	1	1.515	3.7692	-0.3937	8.6071	11.066	-3.4199	-1.3883	4.4665	9.1397	-0.2298	1.1617	4.3915	5.6885	-0.065	2.8184	-6.0626	1.6395	13.0602	3.3406	9.5928	0.4622	0.333	0.333	0.333	0.333	0.333	0.333	0.333	0.333	0.333	0.333	0.333	0.333	0.333	0.333	0.333	0.333	0.333	0.333	0.333	6.327	1.493	3.0158	18	168	0.415415438961332	1	0
"169"	18	29	3	-4	-6.8	1	4	-1	1	1.166	-2.2351	-3.3792	-5.7932	-12.1008	-13.0649	-3.8182	-3.7733	-5.6804	-14.5239	-11.7565	-3.3095	-14.0195	-7.4949	-5.1399	-5.0284	4.6471	-8.3248	-9.7471	-0.6869	-11.0353	0.333	0.333	0.333	0.333	0.333	0.333	0.333	0.333	0.333	0.333	0.333	0.333	0.333	0.333	0.333	0.333	0.333	0.333	0.333	6.327	1.642	2.8173	18	169	0.153579087928301	0	1
"170"	18	53	3	0	0	0	7	-1	1	2.107	-1.23	3.1652	-3.4286	-4.1158	-1.5284	-5.0674	-2.8159	3.4343	10.9492	0.7885	-1.8712	-2.1137	-1.1268	4.6782	-8.3305	-3.575	-0.1334	7.8594	-4.4686	8.916	0.3264	0.2777	0.3216	0.2941	0.2106	0.247	0.435	0.2292	0.4245	0.2923	0.3525	0.2249	0.4392	0.3611	0.5028	0.4054	0.282	0.4012	0.2899	6.3173	1.4929	3.6074	18	170	0.745265134822052	0	1
"171"	18	13	3	2	3.4	0	7	1	1	1.843	-1.0088	10.4371	12.5343	-4.6905	5.227	-0.3702	4.328	9.9312	0.8196	2.2843	9.4281	-4.5083	9.6652	0.6442	3.5212	7.8491	-0.3027	0.3709	1.5882	-0.3435	0.2587	0.4021	0.2232	0.3068	0.2636	0.3266	0.2153	0.4001	0.338	0.2821	0.2277	0.2772	0.4046	0.4566	0.4293	0.2102	0.4696	0.3229	0.5029	6.3176	1.5397	3.3935	18	171	0.611394678687686	1	0
"172"	18	23	3	-2	-3.4	0	4	-1	1	1.159	-5.0337	-3.9566	-10.709	2.6714	5.4438	-9.2728	4.6107	-9.6166	-0.212	3.0198	-8.7663	-6.3648	-3.1606	-2.2928	-5.2876	-1.1408	1.0401	-4.3341	-7.0187	-9.5117	0.334	0.442	0.209	0.2611	0.4791	0.2564	0.2254	0.344	0.2522	0.3212	0.3663	0.4096	0.2301	0.4001	0.2755	0.5109	0.3859	0.3465	0.27	6.3197	1.4715	2.6434	18	172	0.147557564357615	0	1
"173"	18	20	3	2	3.4	1	3	1	1	0.989	7.4449	8.1613	4.976	1.7694	-11.5701	3.0678	5.3305	-3.3478	5.734	0.606	2.7954	-2.1959	7.8835	10.658	8.0079	0.5136	2.4595	6.7387	3.4505	3.8937	0.333	0.333	0.333	0.333	0.333	0.333	0.333	0.333	0.333	0.333	0.333	0.333	0.333	0.333	0.333	0.333	0.333	0.333	0.333	6.327	1.5825	2.5729	18	173	-0.0110609473594249	1	0
"174"	18	16	3	-2	-3.4	1	5	-1	1	1.487	-1.8358	-4.0405	-10.6446	1.0593	4.4522	-8.3139	-10.2767	-5.3954	-1.747	1.5888	0.2139	-7.3139	-3.8707	3.7224	-4.1364	-5.9122	4.8002	-10.0316	-7.8404	-2.7553	0.333	0.333	0.333	0.333	0.333	0.333	0.333	0.333	0.333	0.333	0.333	0.333	0.333	0.333	0.333	0.333	0.333	0.333	0.333	6.327	1.5408	3.0379	18	174	0.396760667478018	0	1
"175"	18	14	3	4	6.8	0	5	1	1	1.452	3.3956	8.2867	7.3042	3.0964	4.2373	1.9921	10.1498	10.4993	-4.1874	-2.2651	11.2555	2.7612	15.0562	11.326	6.7252	8.4234	11.9764	11.2815	10.8163	3.8738	0.3566	0.2906	0.4431	0.2114	0.3081	0.3562	0.4707	0.426	0.3666	0.4108	0.3018	0.337	0.414	0.2005	0.2902	0.3486	0.2068	0.2484	0.342	6.3294	1.5548	3.0028	18	175	0.372941916402604	1	0
"176"	18	59	3	-1	-1.7	1	5	-1	1	1.428	1.7505	-9.5484	-1.1795	-1.7431	5.4994	-8.5574	-0.4806	9.3519	1.7247	-6.0635	-7.2263	-3.4023	-6.746	4.8721	-2.4598	-1.0257	-4.5699	0.9707	-6.5039	-0.6442	0.333	0.333	0.333	0.333	0.333	0.333	0.333	0.333	0.333	0.333	0.333	0.333	0.333	0.333	0.333	0.333	0.333	0.333	0.333	6.327	1.4434	2.8782	18	176	0.356274863917393	0	1
"177"	18	21	3	4	6.8	1	5	1	1	1.411	8.4152	17.5417	2.7776	8.2642	5.422	0.6139	3.9809	6.8624	-2.6144	9.8286	15.3578	9.2014	14.1309	4.6123	0.6168	5.3729	5.7246	7.6147	7.5914	3.1141	0.333	0.333	0.333	0.333	0.333	0.333	0.333	0.333	0.333	0.333	0.333	0.333	0.333	0.333	0.333	0.333	0.333	0.333	0.333	6.327	1.5866	3.0117	18	177	0.344298672870677	1	0
"178"	18	33	3	1	1.7	1	4	-1	0	1.313	-1.757	3.1523	-1.2165	-0.2934	-4.4653	11.2267	1.463	8.1566	0.5431	-1.8789	8.2518	-1.559	3.5513	12.5414	-0.2393	-1.5893	-1.0632	1.4089	-5.101	4.3284	0.333	0.333	0.333	0.333	0.333	0.333	0.333	0.333	0.333	0.333	0.333	0.333	0.333	0.333	0.333	0.333	0.333	0.333	0.333	6.327	1.6443	2.9803	18	178	0.272314595320659	0	1
"179"	18	58	3	-2	-3.4	1	8	-1	1	2.352	0.5534	-1.6523	-3.6853	0.7511	-2.5196	-3.8988	-12.8471	-9.4951	-6.9084	-8.4185	8.2291	-6.2031	-3.1073	-3.3195	-4.6599	-7.6465	0.8456	5.3505	-6.7331	-3.2102	0.333	0.333	0.333	0.333	0.333	0.333	0.333	0.333	0.333	0.333	0.333	0.333	0.333	0.333	0.333	0.333	0.333	0.333	0.333	6.327	1.6037	3.9697	18	179	0.85526603003638	0	1
"180"	18	24	3	-1	-1.7	0	8	-1	1	1.993	-2.2918	-1.9212	-8.5351	-2.5042	2.0179	-7.0575	-1.1387	0.551	4.8657	-4.5376	1.4237	4.6342	12.248	-4.0654	-4.1608	-4.5663	-3.02	-9.299	-6.4027	-1.5128	0.2008	0.3776	0.237	0.2992	0.2491	0.2898	0.2377	0.2964	0.4315	0.3032	0.4047	0.3774	0.2978	0.4746	0.3448	0.2928	0.4593	0.3281	0.4339	6.3356	1.6324	3.6437	18	180	0.689641041230658	0	1
"181"	18	26	3	1	1.7	0	5	1	1	1.581	3.9529	-3.4693	1.3588	8.1031	-2.8098	0.8389	2.1033	9.4289	0.9955	1.8364	-1.6611	-4.5718	-8.4165	11.5421	-0.5852	0.8631	-0.8919	-0.6669	9.5042	4.8879	0.2768	0.3417	0.5145	0.2512	0.2767	0.3706	0.2373	0.4812	0.2462	0.306	0.2778	0.372	0.4511	0.3586	0.2151	0.3018	0.382	0.2115	0.4577	6.3296	1.6647	3.2649	18	181	0.458057558227335	1	0
"182"	18	64	3	-4	-6.8	0	5	-1	1	1.555	-2.1129	-5.724	-15.8638	2.4697	-9.4431	-3.7126	-8.6237	-8.0591	-9.3468	-9.5453	-3.8018	-9.9831	-11.4828	-1.1702	-7.9465	-9.0472	-12.2127	-1.1214	-10.7305	2.8768	0.4716	0.2378	0.4979	0.3152	0.3492	0.241	0.3392	0.4766	0.2122	0.3473	0.3067	0.4085	0.2145	0.2879	0.211	0.4013	0.4546	0.26	0.2957	6.3281	1.5402	3.1053	18	182	0.441475545631197	0	1
"183"	18	69	3	2	3.4	0	4	1	1	1.01	4.2115	8.6312	1.9526	3.2558	12.3198	2.9154	1.3354	5.0083	-7.8166	8.5989	5.0266	-0.9498	1.5014	-0.7468	4.0742	14.0745	4.4952	-3.5012	2.483	1.3595	0.2002	0.2758	0.3359	0.2347	0.3828	0.2349	0.4852	0.3019	0.3786	0.2928	0.3774	0.2548	0.3317	0.428	0.375	0.4521	0.2558	0.4582	0.2704	6.3262	1.5336	2.561	18	183	0.00995033085316809	1	0
"184"	18	63	3	4	6.8	1	5	1	1	1.474	3.4334	14.5934	10.6457	10.1292	15.5006	10.0193	6.9344	7.9215	6.9109	9.2013	3.4996	6.2422	15.0155	2.9176	5.4034	-4.5253	-0.1126	6.7269	3.5362	3.8052	0.333	0.333	0.333	0.333	0.333	0.333	0.333	0.333	0.333	0.333	0.333	0.333	0.333	0.333	0.333	0.333	0.333	0.333	0.333	6.327	1.6723	3.158	18	184	0.387979793767145	1	0
"185"	18	70	3	4	6.8	0	6	1	1	1.789	7.3415	2.8412	15.2362	-1.5714	4.2549	16.5804	12.5221	13.3182	8.9112	-0.5186	3.7739	1.5434	4.3107	3.8318	6.2767	7.6397	3.9706	12.1471	9.2044	4.6577	0.3002	0.3345	0.2437	0.5098	0.2013	0.3768	0.225	0.3872	0.2947	0.4586	0.3259	0.2069	0.2368	0.4944	0.2253	0.4667	0.3402	0.2876	0.4167	6.3323	1.5671	3.3565	18	185	0.581656804526582	1	0
"186"	18	51	3	-2	-3.4	0	5	-1	1	1.146	-1.6849	0.11	-1.5626	-4.3617	-5.0241	-5.8952	-2.7405	1.0955	5.019	-13.7432	-7.4106	-11.0396	-4.7696	-0.8297	-6.3916	0.4734	7.3779	-6.3594	-5.0178	-5.182	0.2899	0.2428	0.296	0.2176	0.2955	0.2489	0.4856	0.3826	0.2163	0.2975	0.3407	0.3086	0.4666	0.3933	0.3322	0.4475	0.3021	0.4523	0.3131	6.3291	1.5866	2.7464	18	186	0.136277618292548	0	1
"187"	18	4	3	0	0	1	8	-1	1	2.45	0.3664	-3.039	5.1988	3.8474	-9.669	-10.9093	-2.574	3.4036	-1.7538	0.5308	9.6812	1.7115	-0.5457	-6.0873	-1.8075	4.2902	2.3632	4.7136	-1.6234	2.4624	0.333	0.333	0.333	0.333	0.333	0.333	0.333	0.333	0.333	0.333	0.333	0.333	0.333	0.333	0.333	0.333	0.333	0.333	0.333	6.327	1.5514	4.0004	18	187	0.896088024556636	0	1
"188"	18	52	3	-1	-1.7	0	5	-1	1	1.736	-3.2604	-4.3648	4.2285	-2.0489	-10.5501	-6.4073	-5.3658	4.649	7.7777	-3.7823	-5.8351	-8.7559	-4.7291	3.0994	-2.5815	-0.2997	-0.6863	7.9316	-1.6695	0.4864	0.4835	0.3936	0.2329	0.306	0.4524	0.267	0.303	0.3314	0.2721	0.4666	0.2791	0.3098	0.4655	0.2214	0.2806	0.3262	0.2183	0.274	0.442	6.3255	1.4071	3.1535	18	188	0.551583616238158	0	1
"189"	18	54	3	1	1.7	0	7	1	1	1.745	3.8974	6.3449	-9.208	5.5379	0.486	1.2379	3.5576	3.0826	-1.5912	-3.4883	4.516	-3.21	-4.3526	6.3652	1.293	7.214	-3.1108	10.4421	-1.8638	6.1796	0.2112	0.3023	0.3542	0.3169	0.2353	0.262	0.22	0.4833	0.2977	0.5027	0.3392	0.2701	0.4063	0.3753	0.4233	0.3618	0.479	0.2187	0.2703	6.3295	1.5468	3.2952	18	189	0.556754555654391	1	0
"190"	18	19	3	1	1.7	1	4	-1	0	1.16	-3.0147	-0.0234	-4.6774	-3.2269	5.089	6.384	-1.3426	-3.4419	5.9985	3.8162	-3.0297	-0.7419	2.9909	-2.9534	9.1608	6.0501	3.9708	-2.6196	13.3975	3.0723	0.333	0.333	0.333	0.333	0.333	0.333	0.333	0.333	0.333	0.333	0.333	0.333	0.333	0.333	0.333	0.333	0.333	0.333	0.333	6.327	1.5176	2.6774	18	190	0.148420005118273	0	1
"191"	18	3	3	-1	-1.7	1	6	-1	1	1.905	-3.1194	3.2411	-7.3697	-6.9685	4.0439	-13.7217	3.0096	-2.5222	-1.3249	6.9161	-2.2612	-1.1907	6.5431	-2.5271	-3.6397	1.0614	-5.0178	-7.6332	-0.4802	-2.4803	0.333	0.333	0.333	0.333	0.333	0.333	0.333	0.333	0.333	0.333	0.333	0.333	0.333	0.333	0.333	0.333	0.333	0.333	0.333	6.327	1.4073	3.3225	18	191	0.644482008578664	0	1
"192"	18	35	3	4	6.8	1	4	1	1	1.221	7.0465	11.3392	8.0528	1.0223	7.898	-5.0952	6.2092	9.2507	9.0635	-1.7836	4.6487	4.8188	9.2341	1.549	5.3798	15.4892	10.6818	6.7699	14.0091	8.7984	0.333	0.333	0.333	0.333	0.333	0.333	0.333	0.333	0.333	0.333	0.333	0.333	0.333	0.333	0.333	0.333	0.333	0.333	0.333	6.327	1.4856	2.7218	18	192	0.199670195128568	1	0
"193"	18	55	3	2	3.4	0	7	1	1	2.114	-0.1521	-2.257	1.617	5.9233	-0.9841	-0.0889	1.2241	6.4331	5.6401	4.2848	-1.5612	1.9776	-1.2403	7.5446	7.7219	7.0453	15.0327	-1.3748	13.4114	-0.9805	0.402	0.4964	0.4337	0.2818	0.2446	0.2116	0.3438	0.2414	0.3912	0.4528	0.5	0.2163	0.3451	0.2472	0.3353	0.2019	0.2277	0.4615	0.2856	6.3199	1.4553	3.5816	18	193	0.748581887448046	1	0
"194"	18	38	3	-1	-1.7	0	7	-1	1	2.107	0.9586	-3.1636	-5.7104	4.3903	-3.2838	-3.326	-3.3735	3.2308	-6.5978	10.3436	2.0575	-9.757	-5.601	-1.2897	-1.8824	-0.3257	-8.5775	1.8425	-6.7863	3.0561	0.3128	0.2201	0.4038	0.2463	0.3703	0.2024	0.4215	0.2561	0.3011	0.2228	0.4752	0.5311	0.2398	0.322	0.2021	0.5171	0.3746	0.4662	0.2407	6.3263	1.5824	3.7075	18	194	0.745265134822052	0	1
"195"	18	39	3	0	0	0	9	1	1	2.384	1.315	2.0626	6.1156	-6.2998	7.0654	0.0751	4.9349	2.2272	-10.659	6.8686	-1.2337	-2.1436	-1.7413	-4.1287	2.3334	3.709	-8.0101	4.3764	-0.8557	-5.3459	0.2139	0.5127	0.2392	0.2049	0.256	0.2102	0.2932	0.4122	0.2705	0.4648	0.2908	0.4758	0.4203	0.455	0.221	0.3375	0.2779	0.3231	0.4448	6.3238	1.4001	3.8017	18	195	0.868779749203103	1	0
"196"	18	11	3	0	0	0	5	1	1	1.631	-0.2219	-0.9032	-2.2738	-2.7703	5.8342	4.4615	1.1505	-5.9507	-7.7947	7.1908	5.599	0.7226	-0.5592	5.0721	6.6827	-2.7453	2.8632	-3.7625	-1.3621	-10.8737	0.355	0.4913	0.4473	0.2337	0.3734	0.2407	0.2695	0.2294	0.3119	0.2218	0.5115	0.2411	0.3007	0.4208	0.2351	0.3967	0.2896	0.4279	0.3311	6.3287	1.4104	3.0479	18	196	0.489193323638877	1	0
"197"	18	25	3	0	0	0	5	1	0	1.917	2.4204	-5.7293	-0.9274	-6.5596	8.6422	1.1638	-0.4544	-5.8009	2.4281	-12.3578	-2.1479	1.7835	5.3439	1.2225	-1.8572	0.7763	5.7187	-4.3295	4.097	5.331	0.2084	0.5327	0.4228	0.308	0.497	0.3693	0.2312	0.4917	0.3515	0.2319	0.3124	0.2215	0.2855	0.2572	0.3223	0.2675	0.2366	0.4361	0.3464	6.3302	1.6384	3.5681	18	197	0.650761464063507	1	0
"198"	18	36	3	-4	-6.8	0	6	-1	1	1.46	-10.8173	-6.3704	-2.3426	3.893	-8.6112	-6.6091	-7.8443	-2.936	-3.3997	-2.0108	-19.592	-10.1252	-8.5521	-0.6264	-5.9035	-7.8411	-10.0296	-13.4533	-7.7656	-5.6237	0.3132	0.2028	0.3983	0.2308	0.258	0.3046	0.4408	0.342	0.2055	0.3809	0.522	0.4493	0.2188	0.4573	0.2124	0.3063	0.3447	0.2511	0.4883	6.3271	1.45	2.9112	18	198	0.378436435720245	0	1
"199"	18	66	3	-1	-1.7	0	5	1	0	1.751	-0.4772	-3.2854	-1.2854	3.0638	-1.3725	-1.2583	-8.0056	-4.7031	3.565	-6.6168	-6.5746	-5.8528	-8.4129	7.9169	0.5065	-3.406	4.6241	4.9175	3.643	-9.8162	0.4103	0.2959	0.2261	0.5282	0.3461	0.2337	0.4729	0.2766	0.4233	0.3285	0.3578	0.4717	0.3644	0.2779	0.3285	0.2393	0.28	0.2037	0.2613	6.326	1.6221	3.3848	18	199	0.560187053303715	1	0
"200"	18	43	3	-4	-6.8	1	7	-1	1	2.049	-2.1839	-18.384	-9.1474	-12.4393	-8.2119	-7.9025	-3.5802	-7.0216	-2.2454	-5.5467	-8.1986	-8.1508	4.4296	-7.2103	-7.1955	-10.6058	-5.0633	1.2093	-11.074	-7.5148	0.333	0.333	0.333	0.333	0.333	0.333	0.333	0.333	0.333	0.333	0.333	0.333	0.333	0.333	0.333	0.333	0.333	0.333	0.333	6.327	1.7112	3.7664	18	200	0.717351869256763	0	1
"201"	18	44	3	-2	-3.4	1	5	-1	1	1.467	-7.1497	-3.9115	-5.4785	-0.1962	-3.35	-6.5148	9.4683	-3.5604	-9.1654	-6.3198	-10.4625	-0.4514	-3.457	-7.5661	-2.9106	-4.2902	6.3188	3.4497	-7.5749	-3.548	0.333	0.333	0.333	0.333	0.333	0.333	0.333	0.333	0.333	0.333	0.333	0.333	0.333	0.333	0.333	0.333	0.333	0.333	0.333	6.327	1.4549	2.9341	18	201	0.383219499160845	0	1
"202"	18	41	3	2	3.4	0	4	1	1	1.094	3.2763	4.8032	4.9369	-3.5522	1.6294	3.6671	8.2035	-3.2667	0.816	7.3887	1.709	12.9595	9.2933	-7.5415	5.4686	8.2086	8.5053	-0.8306	2.6775	-0.5505	0.3201	0.4993	0.2154	0.3169	0.2609	0.4902	0.2124	0.3042	0.2168	0.4153	0.3795	0.4615	0.2588	0.4067	0.2114	0.3514	0.3924	0.2222	0.3816	6.317	1.6184	2.7116	18	202	0.0898407039997895	1	0
"203"	18	31	3	-1	-1.7	1	8	-1	1	2.451	-6.6471	6.2881	-0.72	-4.8318	9.0268	0.6213	-9.6574	-5.533	5.5327	-5.3889	-2.0631	0.3375	-2.4937	-7.1587	-1.6963	6.0569	-2.5677	-4.072	-4.1358	-4.1977	0.333	0.333	0.333	0.333	0.333	0.333	0.333	0.333	0.333	0.333	0.333	0.333	0.333	0.333	0.333	0.333	0.333	0.333	0.333	6.327	1.6476	4.1021	18	203	0.896496104545976	0	1
"204"	18	8	3	-4	-6.8	0	8	-1	1	2.057	-8.544	-0.641	-0.6087	-2.1362	-16.3081	-7.5508	-3.5184	-0.6688	-9.7083	-5.1235	2.7021	-12.9412	-3.3018	-8.3215	-7.4829	-11.2996	-11.0275	-6.0697	-13.1183	-10.8331	0.3215	0.3752	0.2301	0.259	0.3549	0.2038	0.2474	0.4783	0.4032	0.3713	0.4736	0.4423	0.3386	0.2566	0.2135	0.3953	0.4323	0.2801	0.2526	6.3295	1.5121	3.5742	18	204	0.72124861067082	0	1
"205"	18	15	3	-4	-6.8	1	4	-1	1	1.278	-7.0715	-5.3802	-9.9709	1.9438	-0.6562	-15.488	-4.3115	0.8055	-5.8159	-4.6334	-3.1852	-14.061	-14.972	-10.8641	-4.5741	-7.2887	-3.1884	-8.894	-11.1014	-8.9912	0.333	0.333	0.333	0.333	0.333	0.333	0.333	0.333	0.333	0.333	0.333	0.333	0.333	0.333	0.333	0.333	0.333	0.333	0.333	6.327	1.655	2.9453	18	205	0.245296355955343	0	1
"206"	18	47	3	1	1.7	1	7	1	1	2.162	5.3161	2.2845	-5.9144	9.9896	0.4111	-2.0084	5.5408	-0.0882	5.4459	3.6758	-2.2504	-12.1261	4.5309	-0.7582	3.3369	4.3423	1.2544	2.2481	-1.4644	8.363	0.333	0.333	0.333	0.333	0.333	0.333	0.333	0.333	0.333	0.333	0.333	0.333	0.333	0.333	0.333	0.333	0.333	0.333	0.333	6.327	1.5977	3.7792	18	206	0.771033719217016	1	0
"207"	18	45	3	-1	-1.7	1	8	-1	1	2.491	1.6338	-5.688	-1.5957	3.9553	-4.406	-8.1342	-10.6853	3.8714	0.2406	-4.2762	-0.3264	1.054	-3.2758	0.3643	-7.7942	8.902	1.1165	-3.9618	-8.6583	3.2794	0.333	0.333	0.333	0.333	0.333	0.333	0.333	0.333	0.333	0.333	0.333	0.333	0.333	0.333	0.333	0.333	0.333	0.333	0.333	6.327	1.7167	4.2246	18	207	0.912684236280043	0	1
"208"	18	46	3	0	0	1	7	1	1	2.271	-0.4374	-1.666	-2.398	4.7846	0.2392	-2.347	5.3369	-1.3141	-4.8702	-3.1264	-14.8959	0.1667	-2.8495	4.0196	8.0855	5.2034	2.728	2.6615	-1.7769	1.1994	0.333	0.333	0.333	0.333	0.333	0.333	0.333	0.333	0.333	0.333	0.333	0.333	0.333	0.333	0.333	0.333	0.333	0.333	0.333	6.327	1.6701	3.9551	18	208	0.820220263123421	1	0
"209"	18	50	3	-4	-6.8	0	5	-1	1	1.485	-11.7986	-3.3416	-8.2496	-0.3768	-2.509	0.9458	-6.0936	-13.6509	-0.0864	-9.6243	-0.933	-13.3995	-8.3276	-16.6236	-10.7156	-4.8622	-2.4753	-8.3218	-6.5986	-10.8625	0.2336	0.4071	0.274	0.4065	0.2281	0.4932	0.2458	0.4203	0.2025	0.4718	0.2209	0.3859	0.2818	0.2257	0.3486	0.5281	0.2521	0.4765	0.2159	6.3185	1.4519	2.9526	18	209	0.395414772254663	0	1
"210"	18	12	3	1	1.7	0	10	1	1	3.005	-0.6777	-5.0582	-0.7308	-3.982	-4.8596	-0.1143	-0.5169	-5.0647	6.9309	6.8885	6.3368	0.3342	2.1429	4.8554	8.9544	-3.4695	2.7923	1.5969	11.3243	6.17	0.2308	0.2698	0.4821	0.2561	0.3939	0.3569	0.3188	0.2312	0.3968	0.2553	0.2126	0.2923	0.4597	0.3514	0.2309	0.4162	0.3886	0.428	0.3499	6.3214	1.7202	4.7394	18	210	1.10027756798717	1	0
"211"	18	30	4	-2	-3.4	1	4	-1	1	1.181	-6.8896	-1.9127	-0.1863	-5.6055	-10.7651	-8.2263	0.099	-2.405	-1.5817	1.0781	-3.7595	-3.0764	-6.3159	-4.9615	-4.755	-10.6368	-2.0485	10.966	1.6502	-10.0893	0.333	0.333	0.333	0.333	0.333	0.333	0.333	0.333	0.333	0.333	0.333	0.333	0.333	0.333	0.333	0.333	0.333	0.333	0.333	6.327	1.7267	2.9148	18	211	0.166361537215225	0	1
"212"	18	66	4	-1	-1.7	0	8	-1	1	2.32	-4.4574	-1.063	8.0638	-2.6249	-9.6262	-0.9957	-5.9358	-3.0366	2.3781	5.0767	-3.2128	-2.5892	2.8325	-11.1461	-0.9446	-3.9071	-5.7358	3.7844	-6.4204	4.3611	0.4648	0.2172	0.4273	0.2138	0.2771	0.3881	0.2551	0.342	0.3697	0.4149	0.3109	0.244	0.4648	0.352	0.2077	0.4725	0.2234	0.282	0.4061	6.3334	1.4218	3.737	18	212	0.841567185678219	0	1
"213"	18	42	4	4	6.8	0	4	1	1	1.161	5.8475	3.7035	9.4644	8.3318	1.1237	15.115	6.8067	9.34	14.2295	2.5696	11.6667	7.3299	12.5556	-1.8545	-0.5786	11.5445	-0.6256	5.0868	8.1865	5.0859	0.4174	0.2121	0.3876	0.266	0.2079	0.3384	0.2459	0.2737	0.488	0.3668	0.2787	0.3786	0.3185	0.459	0.3225	0.4689	0.2902	0.216	0.3962	6.3323	1.6608	2.8288	18	213	0.149281702715754	1	0
"214"	18	1	4	-4	-6.8	1	4	-1	1	1.141	-4.1033	-8.2879	-7.7368	-10.0397	-3.193	-10.7551	-12.3859	-4.935	-5.1921	-7.1608	-12.7551	2.0282	-2.8163	-16.1253	-5.8091	-5.3183	-5.7499	-6.9595	-13.059	5.112	0.333	0.333	0.333	0.333	0.333	0.333	0.333	0.333	0.333	0.333	0.333	0.333	0.333	0.333	0.333	0.333	0.333	0.333	0.333	6.327	1.7104	2.8589	18	214	0.131905070879939	0	1
"215"	18	45	4	-1	-1.7	1	6	-1	1	1.769	-5.1125	-3.8728	9.112	-0.8686	-2.2102	5.8004	-2.2805	4.5071	-6.2352	-3.7412	3.238	-3.6762	-6.3754	5.7121	-2.1037	-1.1101	-5.6697	-8.1435	-0.0499	-9.1993	0.333	0.333	0.333	0.333	0.333	0.333	0.333	0.333	0.333	0.333	0.333	0.333	0.333	0.333	0.333	0.333	0.333	0.333	0.333	6.327	1.4886	3.27	18	215	0.570414415177648	0	1
"216"	18	5	4	1	1.7	1	6	1	1	1.792	5.634	-0.7271	1.2905	-0.4206	-0.6015	1.0651	8.3864	-6.504	-1.0631	5.3563	10.7462	10.7302	-4.5547	4.431	-3.1358	-2.9061	1.0146	5.8352	-4.5071	4.1818	0.333	0.333	0.333	0.333	0.333	0.333	0.333	0.333	0.333	0.333	0.333	0.333	0.333	0.333	0.333	0.333	0.333	0.333	0.333	6.327	1.4887	3.293	18	216	0.583332314552739	1	0
"217"	18	38	4	-1	-1.7	0	7	-1	1	2.019	1.2031	-4.0283	3.2468	-8.2655	-3.8743	-5.9215	2.6138	4.9563	9.3201	1.3697	-2.6411	-1.589	-8.8889	-1.7529	-6.4301	-4.6488	-7.6631	-4.45	-0.6666	5.5901	0.2174	0.3619	0.2986	0.2033	0.4123	0.3275	0.4449	0.412	0.3685	0.271	0.3392	0.2851	0.4438	0.2572	0.3588	0.3292	0.2509	0.438	0.3012	6.3208	1.4665	3.5028	18	217	0.7026023393307	0	1
"218"	18	16	4	-2	-3.4	1	5	-1	1	1.49	0.0455	-4.6116	-7.0986	-8.8248	-4.7945	1.9571	4.1638	-0.1678	-14.7186	-0.1762	-10.7393	-4.5305	-7.0978	-1.3234	-8.9479	-0.372	-5.2234	0.6653	3.6894	-1.6494	0.333	0.333	0.333	0.333	0.333	0.333	0.333	0.333	0.333	0.333	0.333	0.333	0.333	0.333	0.333	0.333	0.333	0.333	0.333	6.327	1.7005	3.2071	18	218	0.398776119957368	0	1
"219"	18	12	4	1	1.7	0	5	1	1	1.483	5.0772	0.1645	5.456	6.5268	-5.9104	1.1131	5.3862	11.4957	-6.8244	2.1012	0.2839	-2.8991	6.0439	3.7917	1.4094	2.9214	4.3084	-9.6011	4.3085	-0.7501	0.2655	0.4324	0.3492	0.2377	0.3347	0.4222	0.2566	0.4331	0.3685	0.2486	0.3182	0.363	0.2858	0.2159	0.2935	0.5024	0.259	0.2898	0.4422	6.3185	1.5592	3.0504	18	219	0.394067063155795	1	0
"220"	18	15	4	-4	-6.8	1	5	-1	1	1.498	-6.6108	-9.3087	-4.4189	-7.1986	-7.845	-12.0519	-7.1051	3.6995	-0.2281	-2.2142	-12.4091	-4.4239	-3.1415	-10.3865	-5.4775	-5.3817	-3.8024	-6.34	-20.4943	-9.0378	0.333	0.333	0.333	0.333	0.333	0.333	0.333	0.333	0.333	0.333	0.333	0.333	0.333	0.333	0.333	0.333	0.333	0.333	0.333	6.327	1.4147	2.9157	18	220	0.404130885095028	0	1
"221"	18	35	4	4	6.8	1	3	1	1	0.967	9.8174	5.3382	12.2085	14.9035	-1.4874	4.2998	-1.0422	4.4075	6.8149	5.2047	11.4109	10.0181	7.7301	-0.5886	10.0456	2.3057	6.4749	14.6551	3.667	10.9346	0.333	0.333	0.333	0.333	0.333	0.333	0.333	0.333	0.333	0.333	0.333	0.333	0.333	0.333	0.333	0.333	0.333	0.333	0.333	6.327	1.6525	2.6348	18	221	-0.0335567835288428	1	0
"222"	18	14	4	4	6.8	0	7	1	1	2.468	5.1673	6.7823	0.4337	4.878	6.6996	-4.3572	10.7397	9.873	0.2535	16.3046	6.596	10.6716	6.0286	5.681	10.2758	11.9587	9.0926	2.8598	3.3674	13.8263	0.3773	0.2926	0.3274	0.2441	0.4696	0.4442	0.3948	0.3268	0.415	0.4538	0.2962	0.2221	0.2645	0.3441	0.2734	0.3222	0.2203	0.4431	0.2018	6.3333	1.7282	4.2022	18	222	0.903408106043141	1	0
"223"	18	22	4	-4	-6.8	0	4	-1	1	1.034	-11.6409	-2.2973	-8.2304	-4.8885	-1.8388	1.0612	-8.4028	-15.6777	-13.8704	-8.9796	-4.0538	0.2186	-1.0738	-7.3824	-10.5761	-3.0757	-3.5884	-8.3493	-13.5792	-11.399	0.2411	0.3877	0.2982	0.2156	0.2437	0.4679	0.3152	0.3583	0.5066	0.2183	0.3414	0.2833	0.2423	0.2055	0.3575	0.4113	0.3387	0.3947	0.494	6.3211	1.4078	2.4509	18	223	0.0334347760862374	0	1
"224"	18	64	4	-4	-6.8	0	4	-1	1	1.215	-6.6547	-10.4792	-1.6446	-5.6787	-9.4743	-2.7326	-7.9249	-4.5453	-17.2114	1.5022	-9.7657	-5.559	-6.9843	-4.4446	1.6873	-16.4381	-4.1452	-10.7153	-9.5298	-5.7132	0.3383	0.3771	0.3198	0.2289	0.3429	0.485	0.2914	0.235	0.4643	0.5023	0.2436	0.3799	0.2993	0.2217	0.327	0.2437	0.2939	0.2334	0.5004	6.328	1.4016	2.6153	18	224	0.194744076792512	0	1
"225"	18	50	4	-4	-6.8	0	6	-1	1	1.389	-8.4757	-2.3401	-5.7433	-7.0854	-9.5529	-10.0296	2.2056	-7.6185	-11.0161	-5.3333	0.5878	-12.6944	-5.3743	-5.5493	0.3798	-6.0981	-8.6612	-14.6797	-3.4981	-17.1304	0.2536	0.2021	0.2528	0.2829	0.3627	0.5317	0.235	0.3903	0.3537	0.4196	0.2205	0.427	0.2392	0.3804	0.2403	0.4722	0.21	0.3442	0.5032	6.3214	1.6396	3.0394	18	225	0.328584063772207	0	1
"226"	18	40	4	1	1.7	0	8	-1	0	2.573	0.351	6.484	3.8729	0.0333	-7.5676	-3.8575	9.4828	-2.3913	-0.3229	5.3372	-8.1155	-1.8607	7.3483	7.8772	1.0389	4.611	5.9893	-0.8047	5.5669	1.1025	0.2227	0.4768	0.3479	0.46	0.2104	0.2367	0.2636	0.4414	0.2944	0.3282	0.3732	0.2091	0.2583	0.2869	0.3456	0.4026	0.4927	0.4288	0.2444	6.3236	1.535	4.1067	18	226	0.945072533299607	0	1
"227"	18	17	4	-1	-1.7	1	7	1	0	2.329	-1.0505	-8.4272	0.0212	-2.5748	-2.3515	0.9488	2.6553	-9.0734	2.41	1.3048	1.2157	5.4947	5.0898	-4.5743	-5.5625	-0.903	-4.2039	4.4584	-4.223	-12.6568	0.333	0.333	0.333	0.333	0.333	0.333	0.333	0.333	0.333	0.333	0.333	0.333	0.333	0.333	0.333	0.333	0.333	0.333	0.333	6.327	1.5209	3.8463	18	227	0.845438990902204	1	0
"228"	18	29	4	-4	-6.8	1	5	-1	1	1.605	-8.6185	-0.6048	3.5445	-12.0194	-7.2115	-9.2261	-10.5766	-9.1366	-5.9555	-14.7802	-2.1266	-10.369	-8.822	-3.9631	-5.4676	-7.2045	-0.7666	-13.093	-9.3227	1.2525	0.333	0.333	0.333	0.333	0.333	0.333	0.333	0.333	0.333	0.333	0.333	0.333	0.333	0.333	0.333	0.333	0.333	0.333	0.333	6.327	1.5231	3.1229	18	228	0.473123756581979	0	1
"229"	18	68	4	1	1.7	0	4	1	1	1.066	6.2923	11.2208	-0.4146	-0.6148	-3.1843	1.7287	3.142	9.3569	-1.3283	-2.9143	-2.3748	-0.7116	6.5787	-2.5821	-0.0096	-1.0321	3.0556	-7.0889	9.0257	7.4735	0.2153	0.3293	0.2549	0.2999	0.2329	0.3474	0.5251	0.4183	0.2863	0.2472	0.3702	0.3176	0.5028	0.3866	0.3519	0.2852	0.399	0.3385	0.2099	6.3185	1.5105	2.5996	18	229	0.0639133257436529	1	0
"230"	18	27	4	2	3.4	0	5	1	1	1.35	7.7118	1.2487	4.851	10.6791	10.551	-1.4631	0.0115	6.477	-1.9214	6.6072	3.5178	2.6557	3.2632	6.3201	2.7274	-7.8789	5.7688	-4.5609	0.8573	11.0026	0.4337	0.211	0.3615	0.2272	0.2875	0.4117	0.2119	0.4804	0.2065	0.266	0.3933	0.2753	0.4726	0.379	0.2149	0.4231	0.2993	0.4116	0.3541	6.3205	1.4961	2.8669	18	230	0.300104592450338	1	0
"231"	18	54	4	1	1.7	0	6	1	1	1.681	2.2503	-0.7743	1.2713	4.4869	9.4314	-8.6967	4.3496	-1.7184	1.0201	0.643	8.4697	-8.7555	1.8059	5.9287	-1.9639	4.608	6.3097	-3.2604	6.5185	0.8833	0.2164	0.3338	0.4428	0.245	0.4134	0.4897	0.2545	0.4285	0.2476	0.2219	0.2529	0.3211	0.4883	0.4158	0.333	0.2297	0.4885	0.297	0.2065	6.3263	1.6681	3.3647	18	231	0.519388854426479	1	0
"232"	18	62	4	2	3.4	1	4	1	1	1.293	6.1743	5.407	3.3297	-1.8974	9.9267	-12.0111	5.83	2.6879	0.8604	0.4532	0.8166	8.1432	5.117	0.0035	6.6457	9.2765	7.0564	3.663	7.1849	-1.9956	0.333	0.333	0.333	0.333	0.333	0.333	0.333	0.333	0.333	0.333	0.333	0.333	0.333	0.333	0.333	0.333	0.333	0.333	0.333	6.327	1.5991	2.9101	18	232	0.25696509978972	1	0
"233"	18	20	4	2	3.4	1	5	1	1	1.626	-0.3174	5.5169	2.9394	0.5931	4.0009	9.1765	6.4101	4.1596	1.1401	1.5326	-11.266	-0.4247	6.6685	-0.5861	1.833	3.2167	10.4419	11.1185	8.0093	2.4643	0.333	0.333	0.333	0.333	0.333	0.333	0.333	0.333	0.333	0.333	0.333	0.333	0.333	0.333	0.333	0.333	0.333	0.333	0.333	6.327	1.6602	3.2932	18	233	0.486123011125619	1	0
"234"	18	56	4	4	6.8	0	4	1	1	1.245	7.5294	16.179	9.5926	7.2655	2.7279	-1.8208	4.3984	4.73	9.3047	7.7189	15.7498	9.6156	-0.823	13.759	2.3767	4.7365	9.779	1.5039	6.4038	5.1146	0.2144	0.3996	0.2149	0.4937	0.3136	0.2436	0.3053	0.4328	0.3787	0.5063	0.2105	0.4203	0.5056	0.3249	0.2564	0.2219	0.4326	0.2065	0.2549	6.3364	1.5529	2.8123	18	234	0.219135529916671	1	0
"235"	18	49	4	4	6.8	1	3	1	1	0.934	5.1364	13.8362	10.583	3.0879	4.1439	6.3941	2.6446	5.6186	13.2164	7.9943	13.0571	10.7605	10.4461	9.2804	2.074	-1.4731	-4.4573	12.0914	7.7124	5.0513	0.333	0.333	0.333	0.333	0.333	0.333	0.333	0.333	0.333	0.333	0.333	0.333	0.333	0.333	0.333	0.333	0.333	0.333	0.333	6.327	1.6601	2.6011	18	235	-0.0682788407532944	1	0
"236"	18	26	4	1	1.7	0	5	1	1	1.872	-0.2719	0.5232	6.6198	4.1414	3.5019	7.0464	1.8307	11.4417	-0.0983	11.0499	2.2216	1.1275	0.1124	-1.9085	-3.0332	0.2813	-9.7926	-3.6739	3.1991	-0.905	0.3907	0.2991	0.5012	0.4575	0.5168	0.2662	0.3513	0.3116	0.4899	0.2449	0.2096	0.2352	0.3771	0.2084	0.2627	0.402	0.2571	0.2899	0.2471	6.3183	1.4766	3.3564	18	236	0.6270073780554	1	0
"237"	18	13	4	2	3.4	0	7	-1	0	1.866	1.7374	6.539	-1.7853	0.3678	-2.2739	-2.834	13.2794	8.9213	5.135	-4.3377	13.3734	3.8531	9.1322	5.0182	3.9882	3.6474	5.6944	-0.4557	-1.1629	1.0128	0.2247	0.2657	0.2969	0.5222	0.2324	0.2775	0.523	0.4172	0.3564	0.2413	0.378	0.2055	0.4351	0.3707	0.2593	0.2045	0.2412	0.5318	0.3411	6.3246	1.5323	3.3996	18	237	0.623797102425152	0	1
"238"	18	3	4	-1	-1.7	1	4	-1	1	1.204	-5.5089	-3.1788	-4.6835	-3.5657	3.1507	0.6213	-11.0177	-0.7015	3.5539	3.5665	5.1744	-1.6235	-8.0653	-5.492	5.4373	-3.027	-10.789	2.5058	-0.8155	2.1567	0.333	0.333	0.333	0.333	0.333	0.333	0.333	0.333	0.333	0.333	0.333	0.333	0.333	0.333	0.333	0.333	0.333	0.333	0.333	6.327	1.6554	2.8717	18	238	0.185649346886629	0	1
"239"	18	11	4	0	0	0	4	-1	1	1.066	-2.1417	-10.4027	-4.9059	3.3048	1.7062	4.5808	1.4207	-4.6013	-6.5431	-7.3215	-2.575	8.197	6.7555	-2.3451	-0.4221	5.7092	0.7307	3.9194	3.9434	2.4916	0.2608	0.5255	0.2333	0.2018	0.3357	0.4516	0.2565	0.3215	0.2253	0.4639	0.2614	0.4962	0.2522	0.2022	0.2821	0.4958	0.3547	0.2081	0.4917	6.3201	1.7062	2.7832	18	239	0.0639133257436529	0	1
"240"	18	46	4	0	0	1	6	1	1	1.895	-0.9823	-0.8953	6.8628	-1.6155	2.1606	-3.9848	0.3734	-1.9661	3.4234	-0.842	-7.0867	-0.8584	13.2103	-6.8354	-5.4922	1.2904	0.1405	-5.2414	6.8815	3.2828	0.333	0.333	0.333	0.333	0.333	0.333	0.333	0.333	0.333	0.333	0.333	0.333	0.333	0.333	0.333	0.333	0.333	0.333	0.333	6.327	1.4864	3.3792	18	240	0.63921883853439	1	0
"241"	18	21	4	4	6.8	1	3	1	1	0.834	9.0956	8.1241	3.5637	11.6346	12.0682	7.3627	3.5351	9.4819	4.2431	15.1862	-0.8775	2.8647	9.0689	-3.412	7.643	14.9521	9.754	0.0346	7.9293	3.7835	0.333	0.333	0.333	0.333	0.333	0.333	0.333	0.333	0.333	0.333	0.333	0.333	0.333	0.333	0.333	0.333	0.333	0.333	0.333	6.327	1.6339	2.4678	18	241	-0.18152187662339	1	0
"242"	18	36	4	-4	-6.8	0	3	-1	1	0.757	-11.1682	-9.7067	-10.3313	0.6362	-9.1038	0.7125	-7.2869	-2.5091	-4.8778	-3.4917	3.3929	-7.2614	-10.8417	-14.191	-3.296	-8.5524	-5.873	-14.7857	-6.1238	-10.3849	0.2086	0.2943	0.3522	0.2989	0.3509	0.2791	0.4091	0.3343	0.4329	0.2972	0.2685	0.3255	0.5255	0.2727	0.3484	0.3012	0.2317	0.5118	0.2903	6.3331	1.6743	2.4413	18	242	-0.278392025544688	0	1
"243"	18	57	4	-4	-6.8	1	3	-1	1	0.949	-11.0906	-6.2089	-8.1854	-1.362	-2.5659	-7.6769	-3.6364	-3.2409	-3.7806	-13.2603	-12.6988	-9.4906	-4.6185	-9.4906	-18.46	2.4087	-11.9593	-6.3172	-1.5564	-3.3088	0.333	0.333	0.333	0.333	0.333	0.333	0.333	0.333	0.333	0.333	0.333	0.333	0.333	0.333	0.333	0.333	0.333	0.333	0.333	6.327	1.5679	2.5162	18	243	-0.0523464803722092	0	1
"244"	18	10	4	-1	-1.7	0	5	-1	1	1.812	0.9198	0.3217	-8.3578	-2.9148	-0.5836	2.3831	6.6293	-2.7347	-7.6418	-5.5848	11.5807	-4.4394	-6.7746	0.1049	-2.3063	-7.3606	-5.0743	4.0654	-2.8875	-1.4692	0.4792	0.4207	0.2603	0.2074	0.4834	0.5144	0.2486	0.4009	0.299	0.2136	0.2516	0.2903	0.3961	0.2094	0.2439	0.4737	0.2488	0.2978	0.3899	6.3289	1.6679	3.4957	18	244	0.594431207620788	0	1
"245"	18	24	4	-1	-1.7	0	4	-1	1	1.192	-5.3421	-2.2046	-4.1108	-0.8948	-6.4014	-10.5457	-2.2621	1.524	-2.3596	3.6569	-1.0937	6.5181	8.831	-4.4069	3.9909	-7.4634	-7.5311	-0.7319	0.6735	-5.39	0.2064	0.3107	0.2461	0.4411	0.3054	0.4415	0.2137	0.3423	0.2832	0.3602	0.2559	0.3888	0.2666	0.4066	0.2082	0.2933	0.3561	0.5319	0.4728	6.3307	1.6409	2.8427	18	245	0.175632568643158	0	1
"246"	18	61	4	1	1.7	1	4	1	1	1.008	1.4693	8.9313	-2.0096	-2.8893	-3.7334	-6.349	-1.5018	8.3266	-0.0808	5.9194	2.2508	3.3241	1.9896	12.4732	-7.2854	3.723	-1.5472	2.702	5.5786	3.152	0.333	0.333	0.333	0.333	0.333	0.333	0.333	0.333	0.333	0.333	0.333	0.333	0.333	0.333	0.333	0.333	0.333	0.333	0.333	6.327	1.4117	2.442	18	246	0.00796816964917688	1	0
"247"	18	41	4	2	3.4	0	7	1	1	1.778	1.0406	2.0052	-0.6329	5.2395	6.6515	5.5423	0.9053	-0.4016	-6.0259	10.3894	10.1949	7.2762	-0.7086	-0.5341	3.8694	15.1488	5.9163	-2.2747	1.3629	3.7315	0.3203	0.2436	0.2165	0.2773	0.4154	0.2098	0.4873	0.2712	0.2117	0.4007	0.5308	0.4507	0.2631	0.208	0.2801	0.4103	0.3519	0.285	0.4981	6.3319	1.5904	3.3787	18	247	0.575489137091713	1	0
"248"	18	23	4	-2	-3.4	0	4	-1	1	1.035	-8.239	-1.3739	-4.8809	-3.6323	-7.0606	-4.7298	-1.1215	3.1885	4.3798	-3.8356	-8.6204	-12.6447	-1.733	1.9998	-9.674	-5.3845	0.6562	2.5131	3.6339	-9.5444	0.372	0.2389	0.3422	0.2717	0.2275	0.4677	0.3445	0.2055	0.3719	0.2747	0.5251	0.2235	0.4821	0.2249	0.4772	0.3433	0.2343	0.3317	0.3623	6.3209	1.5495	2.602	18	248	0.0344014267173323	0	1
"249"	18	18	4	0	0	1	4	1	1	1.171	-0.1655	2.1458	1.7214	0.7036	-4.7328	0.4585	-6.8408	5.2512	3.5179	-2.1003	-2.6655	2.5874	-6.5784	3.5836	-4.1257	-8.1642	-2.1641	-0.5851	10.2669	8.4631	0.333	0.333	0.333	0.333	0.333	0.333	0.333	0.333	0.333	0.333	0.333	0.333	0.333	0.333	0.333	0.333	0.333	0.333	0.333	6.327	1.4031	2.5884	18	249	0.15785808461558	1	0
"250"	18	7	4	4	6.8	1	3	1	1	0.805	8.3673	12.9853	-1.5583	10.9143	7.2308	14.7951	4.579	1.4936	4.7726	2.868	7.8791	5.1753	5.3757	6.2175	7.969	11.9321	13.1616	-5.4483	6.1212	10.6808	0.333	0.333	0.333	0.333	0.333	0.333	0.333	0.333	0.333	0.333	0.333	0.333	0.333	0.333	0.333	0.333	0.333	0.333	0.333	6.327	1.7073	2.5224	18	250	-0.216913001563574	1	0
"251"	18	2	4	-2	-3.4	1	5	-1	1	1.461	-4.801	0.1325	-8.324	3.252	2.7286	-6.1304	-5.6696	-1.3448	-6.6608	3.2288	-9.0551	0.8836	-10.4824	-5.0546	-2.4875	-2.6784	1.1272	3.7818	-7.3433	-13.5296	0.333	0.333	0.333	0.333	0.333	0.333	0.333	0.333	0.333	0.333	0.333	0.333	0.333	0.333	0.333	0.333	0.333	0.333	0.333	6.327	1.503	2.9781	18	251	0.379121132768562	0	1
"252"	18	32	4	0	0	1	4	1	1	1.194	-1.6466	12.9881	-0.7812	-2.4061	0.4901	-3.0483	-3.2516	2.8542	-3.3368	-6.0997	8.0214	0.4305	3.1909	-4.2383	2.4618	-6.5038	1.078	6.3837	-7.3121	1.3837	0.333	0.333	0.333	0.333	0.333	0.333	0.333	0.333	0.333	0.333	0.333	0.333	0.333	0.333	0.333	0.333	0.333	0.333	0.333	6.327	1.4591	2.661	18	252	0.17730901497041	1	0
"253"	18	33	4	1	1.7	1	4	1	1	1.074	5.0962	4.3063	6.2836	-6.9002	-0.1035	0.9534	-4.8461	-7.7478	7.1709	6.4044	6.5361	4.726	6.4138	6.1399	3.683	-2.7992	0.3514	3.3269	-6.7106	0.3703	0.333	0.333	0.333	0.333	0.333	0.333	0.333	0.333	0.333	0.333	0.333	0.333	0.333	0.333	0.333	0.333	0.333	0.333	0.333	6.327	1.6764	2.7577	18	253	0.071389996086673	1	0
"254"	18	55	4	2	3.4	0	4	1	1	1.417	2.7382	2.4877	4.2055	4.1845	0.4826	4.2371	1.6661	9.9492	-3.3347	-4.8342	-4.239	7.0827	7.9811	4.1812	8.9849	4.0889	5.1425	15.1675	-0.369	-0.9823	0.5228	0.3662	0.2093	0.3469	0.4085	0.2842	0.3323	0.2489	0.3788	0.2773	0.2259	0.5294	0.2252	0.3859	0.2386	0.2866	0.3643	0.4845	0.2026	6.3182	1.4626	2.8848	18	254	0.348541960708543	1	0
"255"	18	51	4	-2	-3.4	0	4	-1	1	0.955	-2.9985	-0.181	-8.9164	-7.5435	0.498	-3.8131	-3.0372	-10.9035	-3.5386	0.2824	2.0401	6.555	-5.0016	6.9169	-6.2716	-7.2605	-9.6752	-3.7036	-6.2277	-5.6922	0.2017	0.2657	0.2948	0.2266	0.4839	0.2974	0.339	0.2041	0.2539	0.3104	0.3642	0.2986	0.5161	0.447	0.3398	0.3082	0.4838	0.3771	0.3049	6.3171	1.51	2.4724	18	255	-0.0460439385014068	0	1
"256"	18	52	4	-1	-1.7	0	5	-1	1	1.511	-2.7027	7.6339	-6.2632	1.6455	-6.2759	-3.961	-10.2118	2.1516	5.8205	0.9117	3.4567	-2.7426	-3.0476	-1.2556	-6.8334	2.8976	-4.7003	3.9931	-7.5151	-6.1324	0.3913	0.2769	0.375	0.2649	0.4982	0.3786	0.4119	0.2237	0.3687	0.2541	0.4383	0.2121	0.2794	0.3322	0.247	0.325	0.2349	0.4958	0.3124	6.3204	1.5882	3.0948	18	256	0.412771683290602	0	1
"257"	18	6	4	2	3.4	1	6	1	1	1.707	6.8516	2.717	-5.3226	4.0756	4.4295	7.0204	2.7363	-2.0118	-0.9115	0.2434	1.1749	11.1171	-0.4515	2.7429	1.6769	1.5519	-0.7194	5.3116	17.385	8.1198	0.333	0.333	0.333	0.333	0.333	0.333	0.333	0.333	0.333	0.333	0.333	0.333	0.333	0.333	0.333	0.333	0.333	0.333	0.333	6.327	1.6484	3.3582	18	257	0.534737443812304	1	0
"258"	18	59	4	-1	-1.7	1	7	-1	1	2.249	0.4331	1.0613	-5.9442	-5.0154	3.9567	-3.2393	-6.1957	-2.7839	3.3273	-13.5272	-7.3763	-3.8536	-1.1462	-6.013	4.921	1.9498	1.6974	-5.022	0.1001	7.4388	0.333	0.333	0.333	0.333	0.333	0.333	0.333	0.333	0.333	0.333	0.333	0.333	0.333	0.333	0.333	0.333	0.333	0.333	0.333	6.327	1.6142	3.8667	18	258	0.810485672977179	0	1
"259"	18	8	4	-4	-6.8	0	4	-1	1	1.254	-3.5223	-7.3467	-6.1761	-3.7966	-10.1227	-8.6583	-12.4072	-11.3071	0.4375	-4.3116	0.57	-1.7868	-14.7727	-13.146	-2.7237	-8.6206	-6.9208	-16.5268	-3.9653	-1.3197	0.4442	0.2572	0.4109	0.2148	0.5043	0.236	0.4769	0.3251	0.5291	0.329	0.2913	0.4362	0.2236	0.2967	0.2716	0.3718	0.1999	0.2921	0.2221	6.3331	1.7237	2.9882	18	259	0.226338442210729	0	1
"260"	18	39	4	0	0	0	3	1	1	1.113	4.8662	2.3538	1.143	-7.2452	5.2528	-2.868	4.4862	8.4225	-9.2594	-8.0579	-4.2987	-1.4306	1.6615	3.4526	-0.4074	-0.9371	5.583	4.8264	-0.5519	-6.4271	0.2249	0.4834	0.4064	0.2746	0.2244	0.2596	0.3968	0.2295	0.2648	0.5156	0.3094	0.3952	0.4397	0.3025	0.2283	0.4606	0.3728	0.2876	0.2499	6.3259	1.5378	2.6638	18	260	0.107059072293408	1	0
"261"	18	34	4	2	3.4	1	3	1	1	0.991	4.8208	0.038	0.5428	2.8661	13.0525	5.8203	-2.2992	1.4709	8.0135	-3.65	-0.2917	-2.7482	3.6666	4.102	0.0253	7.6272	4.1997	10.06	-1.0477	12.9977	0.333	0.333	0.333	0.333	0.333	0.333	0.333	0.333	0.333	0.333	0.333	0.333	0.333	0.333	0.333	0.333	0.333	0.333	0.333	6.327	1.4178	2.4252	18	261	-0.00904074465214907	1	0
"262"	18	4	4	0	0	1	6	-1	1	1.748	-0.6545	-2.8948	5.5064	2.8234	-5.1097	2.0261	7.6895	-6.6731	-7.1835	3.5382	-2.8386	2.9838	-1.7723	1.31	4.384	-1.6487	1.5813	2.4221	-12.5337	5.5096	0.333	0.333	0.333	0.333	0.333	0.333	0.333	0.333	0.333	0.333	0.333	0.333	0.333	0.333	0.333	0.333	0.333	0.333	0.333	6.327	1.6076	3.3653	18	262	0.558472277233344	0	1
"263"	18	28	4	4	6.8	0	6	1	1	1.525	11.6359	-5.6277	10.1712	6.2588	10.2905	8.5068	5.2443	7.8339	2.268	7.647	9.3219	4.7269	10.2236	8.987	3.9782	17.9187	-1.7811	3.8059	7.0372	7.6975	0.2022	0.2339	0.3302	0.4569	0.2751	0.5259	0.378	0.5234	0.4163	0.2654	0.4841	0.2707	0.2385	0.3061	0.2025	0.2767	0.4564	0.272	0.2195	6.3338	1.517	3.0595	18	263	0.421994410059375	1	0
"264"	18	69	4	2	3.4	0	7	1	1	2.177	7.5767	3.1162	11.2969	-3.075	2.8995	6.1796	4.7443	-3.5406	-5.6873	-0.0263	-1.6183	2.8753	8.4359	10.4426	5.3319	2.7709	-0.66	12.1428	0.7866	2.667	0.3386	0.2205	0.3163	0.4378	0.2495	0.3063	0.4307	0.2063	0.4898	0.2328	0.3676	0.2048	0.388	0.4346	0.2403	0.3166	0.3628	0.5202	0.2543	6.3177	1.4082	3.5945	18	264	0.77794778225241	1	0
"265"	18	60	4	0	0	1	4	-1	0	1.239	-1.3519	-5.8998	-5.3959	0.1218	2.8593	-2.1105	-0.7638	3.9864	-7.0509	-4.3648	10.1949	-0.3739	-0.1138	-0.4079	8.6877	2.6019	-6.3251	4.6556	6.6738	-5.0425	0.333	0.333	0.333	0.333	0.333	0.333	0.333	0.333	0.333	0.333	0.333	0.333	0.333	0.333	0.333	0.333	0.333	0.333	0.333	6.327	1.5931	2.8398	18	265	0.214304602647005	0	1
"266"	18	48	4	2	3.4	1	5	1	1	1.44	3.0947	2.9646	0.2548	5.831	8.776	4.2412	8.5471	13.2857	2.3097	11.3951	2.1766	-5.4444	1.9747	-7.9277	5.3582	2.2761	0.461	-1.0193	4.602	3.3308	0.333	0.333	0.333	0.333	0.333	0.333	0.333	0.333	0.333	0.333	0.333	0.333	0.333	0.333	0.333	0.333	0.333	0.333	0.333	6.327	1.4665	2.9072	18	266	0.364643113587909	1	0
"267"	18	58	4	-2	-3.4	1	7	-1	1	2.113	1.3874	-1.0212	1.6605	-6.2909	-5.6289	-0.5075	-3.7454	-7.0443	-0.3344	-2.1299	-13.4108	1.0404	-9.8195	2.7139	3.6042	-3.9813	-0.9363	-5.8123	-13.2993	-2.6284	0.333	0.333	0.333	0.333	0.333	0.333	0.333	0.333	0.333	0.333	0.333	0.333	0.333	0.333	0.333	0.333	0.333	0.333	0.333	6.327	1.7016	3.8133	18	267	0.74810873863392	0	1
"268"	18	37	4	-2	-3.4	0	8	-1	1	2.368	-2.3148	-7.0864	-1.8076	-3.6748	3.7442	0.1489	-13.9629	-3.5873	0.1623	-5.2975	0.3905	-9.2243	-8.9432	4.0435	-3.7937	-5.0082	-7.7702	6.4724	-7.4723	-4.1095	0.2103	0.3059	0.2255	0.4215	0.3396	0.2859	0.4405	0.2629	0.5005	0.2585	0.3393	0.3865	0.2932	0.2406	0.4822	0.2129	0.3633	0.4715	0.2918	6.3325	1.5244	3.9023	18	268	0.862045717021759	0	1
"269"	18	70	4	4	6.8	0	6	1	1	1.702	5.7137	8.9839	-0.4088	14.0598	3.1516	10.3343	-3.0846	9.5799	3.124	13.1978	4.822	7.554	2.1569	7.2043	12.9631	0.5543	11.6325	6.0183	12.5949	7.6824	0.4456	0.2561	0.2102	0.3025	0.2318	0.3791	0.4734	0.2128	0.4077	0.2694	0.3408	0.3084	0.3619	0.3997	0.2131	0.4626	0.3879	0.2677	0.3917	6.3224	1.6931	3.4033	18	269	0.531804030151182	1	0
"270"	18	19	4	1	1.7	1	11	-1	0	3.338	-0.8174	3.5945	3.1985	8.9144	-6.489	-3.1958	-0.3785	-2.0106	0.6739	-3.2044	6.0762	6.9714	2.8271	5.8683	1.7147	6.9393	-5.9317	-1.3517	-1.7072	11.2959	0.333	0.333	0.333	0.333	0.333	0.333	0.333	0.333	0.333	0.333	0.333	0.333	0.333	0.333	0.333	0.333	0.333	0.333	0.333	6.327	1.5415	4.8889	18	270	1.20537182523964	0	1
"271"	18	65	4	-2	-3.4	0	9	-1	1	2.79	-6.7969	-1.3501	-8.2973	-1.9069	-13.2338	-10.6394	-4.9994	-5.8373	4.3226	-1.8167	-6.3554	8.0406	-5.8431	0.8713	0.7459	-4.9907	-6.4568	2.1425	-2.3143	-4.9892	0.2292	0.4936	0.2144	0.4781	0.3823	0.3144	0.2267	0.2582	0.4757	0.2464	0.1999	0.2871	0.222	0.4216	0.2869	0.3712	0.4453	0.2379	0.5285	6.3193	1.5751	4.3742	18	271	1.02604159583327	0	1
"272"	18	25	4	0	0	0	6	1	1	2.019	4.3078	4.8298	-2.4274	-3.0524	4.4322	0.4345	2.1717	8.6	2.7955	-9.2751	-6.408	1.3105	-1.6848	-3.2105	0.739	10.3259	-4.2469	1.1826	-6.9894	-2.0341	0.4703	0.2229	0.2671	0.5107	0.2862	0.4185	0.3566	0.2058	0.4691	0.4085	0.2673	0.3212	0.2676	0.3043	0.2747	0.3774	0.3281	0.256	0.3103	6.3226	1.6392	3.6702	18	272	0.7026023393307	1	0
"273"	18	63	4	4	6.8	1	4	1	1	1.186	9.8743	9.5422	3.5074	16.0098	4.4622	14.2659	10.3459	7.7809	5.4069	-2.5286	13.078	9.3296	4.3242	0.8638	8.2073	8.242	0.3066	4.3599	0.0626	8.6602	0.333	0.333	0.333	0.333	0.333	0.333	0.333	0.333	0.333	0.333	0.333	0.333	0.333	0.333	0.333	0.333	0.333	0.333	0.333	6.327	1.4501	2.6535	18	273	0.170586300575534	1	0
"274"	18	67	4	0	0	0	5	-1	0	1.666	-0.9586	-2.1228	0.4762	-4.2668	3.5799	-1.879	-8.5681	-0.4152	-3.0653	-9.814	2.3649	1.4085	5.612	6.8349	6.4552	4.7492	-5.5991	1.4541	7.6705	-5.6482	0.2342	0.4718	0.3484	0.3768	0.2401	0.2771	0.3316	0.3834	0.484	0.2866	0.3294	0.5199	0.3324	0.2358	0.3426	0.316	0.3474	0.2188	0.2593	6.3356	1.4807	3.1665	18	274	0.510425543744651	0	1
"275"	18	53	4	0	0	0	6	1	0	1.62	3.4134	9.8983	-0.0899	1.4323	0.1355	-1.7986	0.839	-2.8789	8.1955	-1.5031	-13.983	-2.1612	-5.8553	0.6805	2.6169	-2.6624	2.2995	3.9043	-0.4916	-1.9409	0.3005	0.2476	0.298	0.418	0.3123	0.2196	0.3587	0.4975	0.2613	0.4802	0.258	0.311	0.3391	0.3049	0.233	0.412	0.3538	0.2985	0.4194	6.3235	1.5328	3.1708	18	275	0.482426149244293	1	0
"276"	18	47	4	1	1.7	1	8	1	1	2.562	2.3451	-3.3094	3.7366	7.3792	-8.1395	-0.7112	4.7376	-2.5184	8.7554	3.4502	-3.1129	10.9157	6.4873	-4.5641	6.2002	0.6968	0.6503	-0.8036	4.7974	-4.353	0.333	0.333	0.333	0.333	0.333	0.333	0.333	0.333	0.333	0.333	0.333	0.333	0.333	0.333	0.333	0.333	0.333	0.333	0.333	6.327	1.5494	4.1292	18	276	0.940788203474542	1	0
"277"	18	9	4	-2	-3.4	0	6	-1	1	1.73	-6.8506	-9.7438	5.6094	-5.9493	5.7024	-6.8614	-4.3806	-4.6722	-7.2639	-6.4542	-4.1311	-6.1793	-0.336	1.4365	-13.9838	-2.7115	-1.0402	-3.8768	-1.4717	3.5041	0.3293	0.489	0.2537	0.2873	0.2163	0.4942	0.3026	0.2139	0.2974	0.2299	0.3582	0.2165	0.5035	0.3159	0.4842	0.3866	0.2021	0.5044	0.2441	6.3289	1.6503	3.3976	18	277	0.548121408509688	0	1
"278"	18	44	4	-2	-3.4	1	4	-1	1	1.203	-2.9858	-5.8384	-3.9941	-2.6987	5.5145	-4.2235	-9.7169	-7.0531	-0.7222	-3.4593	2.9064	6.3357	-0.1534	0.561	-6.2268	-10.7367	-7.7894	1.0659	-8.5825	-9.0956	0.333	0.333	0.333	0.333	0.333	0.333	0.333	0.333	0.333	0.333	0.333	0.333	0.333	0.333	0.333	0.333	0.333	0.333	0.333	6.327	1.7297	2.9371	18	278	0.184818436992542	0	1
"279"	18	43	4	-4	-6.8	1	6	1	0	1.751	-2.8033	-18.6014	-2.7892	-2.9942	-0.9103	-4.7751	-4.534	-12.8977	-3.6974	-10.373	-7.7431	-10.4547	-9.6383	-6.9885	-7.3034	-13.3176	0.9352	-9.6761	0.7538	-8.4759	0.333	0.333	0.333	0.333	0.333	0.333	0.333	0.333	0.333	0.333	0.333	0.333	0.333	0.333	0.333	0.333	0.333	0.333	0.333	6.327	1.4548	3.2182	18	279	0.560187053303715	1	0
