"subNo"	"index"	"block"	"level"	"mean"	"periodicity"	"nEvents"	"answer"	"isCorrect"	"rt"	"s1"	"s2"	"s3"	"s4"	"s5"	"s6"	"s7"	"s8"	"s9"	"s10"	"s11"	"s12"	"s13"	"s14"	"s15"	"s16"	"s17"	"s18"	"s19"	"s20"	"t1"	"t2"	"t3"	"t4"	"t5"	"t6"	"t7"	"t8"	"t9"	"t10"	"t11"	"t12"	"t13"	"t14"	"t15"	"t16"	"t17"	"t18"	"t19"	"seqDuration"	"startInterval"	"trialDuration"	"pID"	"Trial"	"rtLog"	"right"	"left"
"1"	1	34	1	2	3.69	1	10	1	1	3.321	0.33	-0.7745	-8.4295	0.0756	5.1305	2.1104	9.5688	4.9171	13.3016	5.9267	-2.4405	2.0697	8.799	7.8508	2.3411	6.4589	0.945	9.5152	0.5368	5.3991	0.333	0.333	0.333	0.333	0.333	0.333	0.333	0.333	0.333	0.333	0.333	0.333	0.333	0.333	0.333	0.333	0.333	0.333	0.333	6.327	1.6732	5.0046	1	1	1.20026594239461	1	0
"2"	1	62	1	2	3.69	1	8	1	1	2.429	0.9849	7.2278	-4.3296	6.0384	-2.1791	11.3494	4.7557	1.8216	5.7141	7.9443	1.0301	2.3559	16.4377	-3.1288	-2.6963	4.3907	4.0718	4.4959	5.6655	3.1452	0.333	0.333	0.333	0.333	0.333	0.333	0.333	0.333	0.333	0.333	0.333	0.333	0.333	0.333	0.333	0.333	0.333	0.333	0.333	6.327	1.4168	3.8462	1	2	0.887479650020035	1	0
"3"	1	10	1	-1	-1.845	0	15	1	0	4.384	-1.5989	-1.7896	1.8953	-4.3279	-8.9717	-3.5568	2.1637	-4.5811	-5.654	10.1365	-1.6835	-11.0699	-0.8159	-2.6697	-0.6684	2.8887	-0.1735	-7.5536	6.4875	-3.866	0.3308	0.3856	0.3293	0.2292	0.4541	0.2092	0.4286	0.283	0.249	0.2085	0.3022	0.3937	0.3003	0.221	0.3397	0.3998	0.4318	0.3406	0.4841	6.3205	1.428	5.8175	1	3	1.47796154964571	1	0
"4"	1	35	1	4	7.38	1	7	1	1	2.202	6.4527	7.7875	13.2903	11.5222	3.927	5.6616	10.6512	11.057	13.7433	12.2851	10.2491	12.1297	8.8064	-2.1243	-2.5632	1.8616	9.4553	6.9278	4.0705	1.6748	0.333	0.333	0.333	0.333	0.333	0.333	0.333	0.333	0.333	0.333	0.333	0.333	0.333	0.333	0.333	0.333	0.333	0.333	0.333	6.327	1.6132	3.8199	1	4	0.789366038300488	1	0
"5"	1	63	1	4	7.38	1	8	1	1	2.533	5.7786	1.6566	9.2356	14.492	7.0757	12.9724	9.4243	6.5028	1.128	7.9142	2.7244	0.9811	-2.1445	3.1468	7.6858	10.0783	16.746	7.4239	14.8474	8.2017	0.333	0.333	0.333	0.333	0.333	0.333	0.333	0.333	0.333	0.333	0.333	0.333	0.333	0.333	0.333	0.333	0.333	0.333	0.333	6.327	1.6251	4.1672	1	5	0.929404371019538	1	0
"6"	1	38	1	-1	-1.845	0	8	-1	1	2.709	-1.8956	-2.5146	9.2219	-4.1229	-6.9028	2.0497	-7.7468	-4.4309	-1.4051	0.7997	-10.371	-2.7597	3.0576	-4.0108	-3.4124	-8.3125	7.4126	-6.148	0.166	2.5964	0.2845	0.4636	0.313	0.4608	0.2923	0.475	0.2408	0.3345	0.2244	0.4721	0.2644	0.2054	0.2622	0.4022	0.3322	0.2944	0.225	0.3388	0.449	6.3346	1.7144	4.4433	1	6	0.996579563102958	0	1
"7"	1	52	1	-1	-1.845	0	13	-1	1	3.929	0.4417	4.5545	-8.2255	3.1325	-3.7929	-5.9495	3.8194	-6.9237	-2.9529	2.5255	1.8418	-1.8722	-1.0144	-7.2433	-6.8531	2.2615	-9.5389	7.6248	-3.5476	-5.6111	0.4917	0.4044	0.2171	0.2628	0.3508	0.2339	0.3913	0.3156	0.2009	0.2494	0.3103	0.4181	0.351	0.2194	0.4858	0.2077	0.4209	0.3398	0.4468	6.3178	1.6936	5.6298	1	7	1.36838494057632	0	1
"8"	1	56	1	4	7.38	0	8	1	1	2.606	5.6626	10.1221	5.6116	3.8228	11.0113	11.1966	2.1443	4.1716	12.2237	11.756	5.9385	6.9413	13.2207	-4.7478	11.0228	5.3063	18.1475	3.8317	8.0415	3.1553	0.3471	0.5214	0.3232	0.4304	0.2114	0.4082	0.2095	0.2979	0.2371	0.3673	0.303	0.3981	0.2178	0.5226	0.2375	0.3894	0.4417	0.207	0.2585	6.3291	1.5155	4.1398	1	8	0.957816478702653	1	0
"9"	1	32	1	0	0	1	13	-1	1	4.273	-3.2769	9.4324	-5.674	-1.407	-2.5923	8.7402	-8.7898	2.1459	-1.0244	-0.0391	-3.2356	-4.4685	4.1839	2.135	0.6389	3.4396	-1.2264	-7.001	-0.5803	8.1339	0.333	0.333	0.333	0.333	0.333	0.333	0.333	0.333	0.333	0.333	0.333	0.333	0.333	0.333	0.333	0.333	0.333	0.333	0.333	6.327	1.4284	5.7073	1	9	1.45231615666189	0	1
"10"	1	50	1	-4	-7.38	0	8	-1	1	2.291	-9.5273	-3.2546	-18.7688	-9.0243	-6.4258	-5.4582	-4.0683	-9.3564	-5.3757	3.9593	-3.4055	-0.4464	-8.3882	-10.938	-11.3085	-13.7115	-11.6792	-7.4481	-8.4469	-5.677	0.4055	0.2979	0.2226	0.2744	0.3528	0.2725	0.3332	0.447	0.2055	0.4559	0.3492	0.3755	0.4651	0.2781	0.3229	0.2343	0.2668	0.4976	0.2689	6.3256	1.4358	3.742	1	10	0.828988403471358	0	1
"11"	1	2	1	-2	-3.69	1	9	-1	1	2.714	-7.9063	-7.1238	1.2897	-3.9652	-4.852	-0.5589	-5.4201	-3.9896	1.8899	-8.5162	-10.7821	-0.2024	-3.7458	3.0491	-0.8025	-7.8359	3.9371	-3.419	-15.6629	0.9495	0.333	0.333	0.333	0.333	0.333	0.333	0.333	0.333	0.333	0.333	0.333	0.333	0.333	0.333	0.333	0.333	0.333	0.333	0.333	6.327	1.6118	4.3313	1	11	0.998423561412677	0	1
"12"	1	30	1	-2	-3.69	1	11	-1	1	3.474	0.0779	0.8752	-2.7334	-7.5221	7.35	-9.2501	-4.7241	-5.702	-13.4669	-1.3187	0.7216	-4.7031	-4.4899	0.6772	-7.2238	-5.8688	-2.359	-8.4496	2.3863	-9.18	0.333	0.333	0.333	0.333	0.333	0.333	0.333	0.333	0.333	0.333	0.333	0.333	0.333	0.333	0.333	0.333	0.333	0.333	0.333	6.327	1.4899	4.9748	1	12	1.24530666781891	0	1
"13"	1	29	1	-4	-7.38	1	10	-1	1	3.244	-11.3832	-15.0363	-3.7005	-13.5007	-2.5163	-2.8043	-7.8713	-9.318	-5.6321	-6.1055	-13.5189	-2.0187	-7.9164	-9.2747	-3.0361	-12.1357	1.0253	0.4016	-11.2361	-12.4116	0.333	0.333	0.333	0.333	0.333	0.333	0.333	0.333	0.333	0.333	0.333	0.333	0.333	0.333	0.333	0.333	0.333	0.333	0.333	6.327	1.679	4.9283	1	13	1.17680713625317	0	1
"14"	1	66	1	-1	-1.845	0	11	1	0	3.172	2.4918	-12.9402	2.1812	3.5876	-2.4976	-7.7108	2.2274	-8.9256	-0.5592	-0.6072	-0.2896	1.1043	5.174	1.4217	-5.7373	-0.7852	-6.4829	-0.9172	-8.9767	3.0585	0.28	0.3431	0.2129	0.3283	0.2359	0.3139	0.4459	0.2635	0.2044	0.4483	0.2221	0.2705	0.5094	0.3228	0.3724	0.2333	0.4818	0.4362	0.3946	6.3194	1.5201	4.6889	1	14	1.1543623037726	1	0
"15"	1	40	1	1	1.845	0	5	1	1	1.519	5.2822	4.4364	8.5188	3.1275	-1.6276	4.1405	6.0091	1.7369	3.5342	-1.1858	-1.0908	-10.558	0.824	-4.9466	5.2455	6.8217	-5.5037	5.7672	6.6528	-1.8867	0.4588	0.3309	0.3804	0.3014	0.2651	0.2369	0.3376	0.3856	0.4117	0.5284	0.2006	0.3652	0.4875	0.2148	0.2448	0.2125	0.3039	0.455	0.2026	6.3237	1.4055	2.9192	1	15	0.418052223613636	1	0
"16"	1	37	1	-2	-3.69	0	5	-1	1	1.738	-4.836	-1.5974	-11.6808	-7.7757	2.854	7.6796	0.3732	-0.9688	-4.7949	-10.8122	0.4431	-8.1108	-5.8877	-6.9329	-4.2659	-10.5491	-1.6788	-3.3971	2.7931	-4.3608	0.4524	0.2869	0.3745	0.2492	0.3764	0.3414	0.3992	0.2548	0.2967	0.3908	0.2572	0.4442	0.3658	0.2645	0.3382	0.2608	0.4404	0.3006	0.2386	6.3327	1.6858	3.439	1	16	0.5527350268432	0	1
"17"	1	46	1	0	0	1	9	1	1	2.971	4.8127	-5.1648	0.0786	-7.57	4.1319	7.9722	1.256	-1.3824	-4.8607	-2.8714	9.975	2.7702	2.8935	-5.3276	-6.3908	6.7679	-0.2425	-3.694	-3.792	0.9745	0.333	0.333	0.333	0.333	0.333	0.333	0.333	0.333	0.333	0.333	0.333	0.333	0.333	0.333	0.333	0.333	0.333	0.333	0.333	6.327	1.6909	4.6716	1	17	1.08889859648047	1	0
"18"	1	69	1	2	3.69	0	8	1	1	2.401	7.6916	6.7992	1.1195	-2.7972	3.1646	10.9241	1.2221	3.226	4.5426	0.4008	1.1768	13.5923	9.9095	5.3341	0.8001	7.1381	6.4493	-2.7265	-5.9699	0.7701	0.4465	0.407	0.2002	0.2422	0.2027	0.4438	0.2899	0.2207	0.4932	0.3108	0.2365	0.3175	0.2368	0.4744	0.3557	0.4299	0.227	0.4603	0.329	6.3242	1.5214	3.9349	1	18	0.875885317239116	1	0
"19"	1	51	1	-2	-3.69	0	7	-1	1	2.117	-1.9323	-5.5568	-4.1558	-7.5192	2.477	-3.1807	-1.2799	-5.972	-10.0032	0.5182	-4.6322	1.5981	-11.1313	1.9094	-10.9336	-6.696	5.9911	1.1187	-4.5367	-9.9915	0.3786	0.2159	0.3072	0.4351	0.242	0.3137	0.5225	0.3147	0.4938	0.2048	0.2327	0.4892	0.2498	0.2046	0.3909	0.2141	0.4203	0.3207	0.377	6.3276	1.496	3.6172	1	19	0.749999992152728	0	1
"20"	1	18	1	0	0	1	12	1	0	3.969	-1.4452	-8.8665	-4.7783	4.6111	1.6002	3.0565	-2.8019	-4.6191	3.0806	0.6864	3.2559	7.4571	3.8329	-4.7424	1.1696	8.755	-8.3814	-3.1579	5.6052	-3.1641	0.333	0.333	0.333	0.333	0.333	0.333	0.333	0.333	0.333	0.333	0.333	0.333	0.333	0.333	0.333	0.333	0.333	0.333	0.333	6.327	1.696	5.6701	1	20	1.37851417380093	1	0
"21"	1	59	1	-1	-1.845	1	6	-1	1	1.834	-1.3322	-2.5813	-1.3957	-2.7977	0.2049	-4.8062	1.8833	8.0748	-1.7348	1.5182	-6.2497	-4.3851	0.0533	-5.1392	0.1627	-7.2647	9.8523	-3.3049	-11.9924	-7.0505	0.333	0.333	0.333	0.333	0.333	0.333	0.333	0.333	0.333	0.333	0.333	0.333	0.333	0.333	0.333	0.333	0.333	0.333	0.333	6.327	1.413	3.251	1	21	0.606499373834273	0	1
"22"	1	68	1	1	1.845	0	12	1	1	3.729	-1.5067	6.2357	2.2754	4.186	0.5286	-4.0296	-0.2669	2.9062	13.6238	-6.4852	0.7723	2.4235	10.0958	-1.8362	6.2745	-0.6592	1.3545	6.4575	2.2563	-6.204	0.2624	0.347	0.2853	0.4527	0.2185	0.2695	0.4072	0.276	0.4352	0.3066	0.2571	0.3847	0.2314	0.3383	0.2022	0.5274	0.3331	0.417	0.3828	6.3345	1.4023	5.146	1	22	1.31614010119668	1	0
"23"	1	27	1	2	3.69	0	12	-1	0	3.997	2.4121	8.2034	-1.832	-3.1108	-2.4982	13.161	6.1224	6.6375	2.8416	-0.567	3.5528	5.8519	-0.9483	2.5101	12.1135	-6.0241	7.6899	5.0347	3.9922	6.8073	0.2937	0.3497	0.3937	0.5082	0.3338	0.2883	0.3138	0.4272	0.4618	0.2179	0.3139	0.4448	0.2166	0.3411	0.2241	0.3131	0.2081	0.4729	0.2081	6.3307	1.625	5.6313	1	23	1.38554407972919	0	1
"24"	1	45	1	-1	-1.845	1	10	-1	1	3.247	-0.1064	-1.0955	-8.7829	-4.6761	-1.8146	-2.0891	-2.9973	-13.2252	2.2793	5.009	-3.4335	1.7979	0.6756	-4.5925	1.0662	7.0156	-1.4121	-10.7881	-2.8658	3.0314	0.333	0.333	0.333	0.333	0.333	0.333	0.333	0.333	0.333	0.333	0.333	0.333	0.333	0.333	0.333	0.333	0.333	0.333	0.333	6.327	1.6268	4.8813	1	24	1.17773149312071	0	1
"25"	1	53	1	0	0	0	13	1	0	3.997	-0.0594	-5.9902	0.3777	-5.1944	-6.6628	-0.7471	6.6597	0.3203	5.4277	2.5763	1.7837	2.327	3.6369	-0.08	6.1911	0.6012	-8.0357	-7.6492	8.591	-4.5816	0.3991	0.2663	0.4022	0.3004	0.419	0.3618	0.4285	0.3283	0.2956	0.2157	0.3155	0.2351	0.5134	0.245	0.3016	0.3564	0.4206	0.2053	0.3256	6.3352	1.4269	5.4311	1	25	1.38554407972919	1	0
"26"	1	60	1	0	0	1	11	-1	1	3.464	2.6352	2.2128	-3.784	-0.0782	1.1079	-6.4529	0.8477	-2.6761	3.9842	-1.8013	3.952	2.68	2.0019	0.8833	7.1882	10.4613	-5.8532	-7.9006	-9.6331	1.0036	0.333	0.333	0.333	0.333	0.333	0.333	0.333	0.333	0.333	0.333	0.333	0.333	0.333	0.333	0.333	0.333	0.333	0.333	0.333	6.327	1.4631	4.9312	1	26	1.24242399070019	0	1
"27"	1	42	1	4	7.38	0	8	1	1	2.67	4.2817	9.9377	1.7234	-0.1493	13.9633	14.7384	10.0255	6.7172	8.5962	8.892	12.6588	1.237	10.3567	11.7135	2.103	12.0685	11.8452	2.3312	6.0956	-0.7067	0.3316	0.37	0.5061	0.2666	0.4406	0.2158	0.3452	0.4895	0.2743	0.4799	0.2957	0.2191	0.3009	0.4287	0.265	0.2335	0.3764	0.2655	0.2313	6.3357	1.6357	4.3203	1	27	0.982078472412158	1	0
"28"	1	54	1	1	1.845	0	9	-1	0	2.612	4.6977	-2.3349	2.5103	0.8441	-9.9304	9.3363	-2.1458	7.335	2.6123	3.6001	0.9878	3.5935	3.4172	-4.5061	10.6358	-1.7569	7.1402	-2.5951	1.1878	4.1177	0.396	0.2986	0.3384	0.2338	0.2965	0.2082	0.3055	0.4331	0.2777	0.3915	0.2392	0.5033	0.3839	0.2719	0.4379	0.2614	0.3434	0.2701	0.4336	6.3241	1.6641	4.2962	1	28	0.960116211414185	0	1
"29"	1	28	1	4	7.38	0	7	1	1	1.976	9.5203	14.6406	6.7046	7.2537	0.2628	9.5682	9.6373	11.1419	2.8923	16.3156	5.4345	0.9873	4.7121	5.1613	10.3228	9.3028	0.0339	0.1408	9.0933	16.1113	0.3866	0.4826	0.2106	0.2412	0.2043	0.255	0.357	0.3827	0.291	0.246	0.3397	0.4337	0.2322	0.2706	0.5292	0.2368	0.4791	0.4331	0.3226	6.3341	1.5231	3.5098	1	29	0.681074599325676	1	0
"30"	1	23	1	-2	-3.69	0	7	-1	1	2.252	-6.6657	-7.9015	-14.7479	-6.8615	1.4703	0.6039	-5.9738	-11.8727	2.1445	-0.9743	-8.1517	-2.6805	-4.6137	-1.0171	-5.7317	0.6054	1.3534	5.4538	-2.7408	-7.0825	0.4686	0.2501	0.2771	0.3422	0.4555	0.3097	0.2751	0.3469	0.2606	0.3567	0.2051	0.2325	0.3476	0.3905	0.223	0.28	0.5149	0.3703	0.4189	6.3251	1.4158	3.6857	1	30	0.811818710277444	0	1
"31"	1	19	1	1	1.845	1	7	1	1	2.226	0.2028	9.3067	-1.7658	2.7954	13.2554	2.8864	-6.6573	2.5973	3.9981	-0.3306	-4.2646	6.1402	6.5658	-3.2516	7.92	3.6077	2.4679	-2.7474	-1.0788	-3.3785	0.333	0.333	0.333	0.333	0.333	0.333	0.333	0.333	0.333	0.333	0.333	0.333	0.333	0.333	0.333	0.333	0.333	0.333	0.333	6.327	1.6707	3.9097	1	31	0.800206252853353	1	0
"32"	1	47	1	1	1.845	1	10	1	1	3.274	0.8534	2.3858	-1.4024	1.4742	-1.6703	-4.9119	-1.5951	11.2363	9.6247	1.9613	1.6459	3.5425	-1.6879	-4.4531	-3.676	8.043	-2.8618	0.875	6.2413	9.7012	0.333	0.333	0.333	0.333	0.333	0.333	0.333	0.333	0.333	0.333	0.333	0.333	0.333	0.333	0.333	0.333	0.333	0.333	0.333	6.327	1.5568	4.841	1	32	1.18601247894894	1	0
"33"	1	61	1	1	1.845	1	7	-1	0	2.133	-1.0389	0.9925	-7.7588	-4.9505	8.1922	5.1678	2.5642	5.1794	-5.3817	1.8404	-4.6623	0.3859	9.351	6.8178	4.0409	-2.039	5.4423	3.3908	0.1987	8.994	0.333	0.333	0.333	0.333	0.333	0.333	0.333	0.333	0.333	0.333	0.333	0.333	0.333	0.333	0.333	0.333	0.333	0.333	0.333	6.327	1.5427	3.6834	1	33	0.757529439489213	0	1
"34"	1	13	1	2	3.69	0	6	1	1	1.946	4.632	1.3599	3.2159	11.0706	7.9416	5.2458	1.3107	-2.1835	4.2871	2.1268	4.9273	-7.0601	0.4213	2.0752	5.6631	3.6013	-0.5445	7.0404	2.6662	16.9817	0.2122	0.5254	0.313	0.2401	0.3263	0.3662	0.4344	0.2496	0.5101	0.3802	0.2041	0.3271	0.4159	0.2501	0.3319	0.2516	0.2869	0.4626	0.2347	6.3224	1.6529	3.5971	1	34	0.665775983763813	1	0
"35"	1	25	1	0	0	0	12	-1	0	3.468	3.5198	1.7205	-0.5637	2.835	-4.1466	0.2655	-5.6085	0.768	-5.4047	-2.878	-0.7835	-4.7016	9.5959	2.0392	-0.7259	-0.0717	0.3901	-8.7407	13.4431	-1.5999	0.2127	0.3955	0.3684	0.2884	0.2354	0.2061	0.3418	0.4823	0.3744	0.2409	0.2886	0.2184	0.2569	0.218	0.3534	0.5207	0.3554	0.5135	0.4614	6.3321	1.5173	4.9851	1	35	1.2435780589183	0	1
"36"	1	7	1	4	7.38	1	6	1	1	1.977	7.2854	5.4101	5.9641	15.0735	18.5241	13.3642	4.7727	-3.4196	4.3764	10.6289	4.2256	5.7195	11.195	7.0763	8.3637	6.823	7.7244	-0.9777	4.049	10.7927	0.333	0.333	0.333	0.333	0.333	0.333	0.333	0.333	0.333	0.333	0.333	0.333	0.333	0.333	0.333	0.333	0.333	0.333	0.333	6.327	1.5166	3.4946	1	36	0.68158054418848	1	0
"37"	1	3	1	-1	-1.845	1	10	-1	1	3.064	-3.2296	-3.4825	-2.8197	-0.9295	1.7918	-9.0342	2.834	-1.876	-7.9742	-6.691	0.3143	-2.1381	-9.1005	0.9696	-4.4821	6.5842	7.4085	5.2711	-7.199	-1.9466	0.333	0.333	0.333	0.333	0.333	0.333	0.333	0.333	0.333	0.333	0.333	0.333	0.333	0.333	0.333	0.333	0.333	0.333	0.333	6.327	1.6985	4.7649	1	37	1.11972125187834	0	1
"38"	1	22	1	-4	-7.38	0	5	-1	1	1.652	-7.8368	-9.3202	-6.6991	-17.4923	-6.5006	-6.2471	-10.0316	-13.7912	1.6629	-13.0919	-9.9815	-2.8717	-7.1382	-5.1113	-7.2615	-7.5712	-7.6969	3.5898	-12.0573	-2.0557	0.2334	0.4553	0.4999	0.2027	0.287	0.2395	0.3268	0.2384	0.3526	0.2468	0.3662	0.4142	0.308	0.279	0.4138	0.344	0.3976	0.2821	0.4399	6.327	1.4487	3.1196	1	38	0.501986675098786	0	1
"39"	1	5	1	1	1.845	1	10	1	1	3.06	0.3748	-9.3734	4.7093	4.9705	2.2677	-5.7295	-4.7388	9.6338	2.0931	8.6899	-1.8894	6.2428	2.6524	2.3637	4.1118	8.2534	0.5995	2.7103	-0.1433	-2.6615	0.333	0.333	0.333	0.333	0.333	0.333	0.333	0.333	0.333	0.333	0.333	0.333	0.333	0.333	0.333	0.333	0.333	0.333	0.333	6.327	1.6417	4.7107	1	39	1.11841491596429	1	0
"40"	1	24	1	-1	-1.845	0	9	-1	1	2.787	1.7456	-9.2764	-5.7187	-1.2329	4.201	8.4099	-8.2613	-2.5419	-0.302	-4.4006	-4.908	1.418	-4.0262	-3.2476	2.9279	-6.0001	-4.8981	-2.1327	7.9677	-5.9016	0.2625	0.3616	0.2213	0.3348	0.2213	0.4579	0.2707	0.5249	0.4336	0.2787	0.4506	0.3807	0.2227	0.5066	0.2125	0.3991	0.2349	0.3131	0.2457	6.3331	1.6361	4.4375	1	40	1.02496574849981	0	1
"41"	1	57	1	-4	-7.38	1	6	-1	1	1.967	-4.716	-10.2807	-7.1049	-12.7414	-8.7492	-6.0463	-8.0859	-11.4511	-14.6729	4.914	-12.1654	-10.7005	0.4036	-8.2338	-10.7613	-10.9254	-6.7381	-0.9371	-7.3222	-1.8884	0.333	0.333	0.333	0.333	0.333	0.333	0.333	0.333	0.333	0.333	0.333	0.333	0.333	0.333	0.333	0.333	0.333	0.333	0.333	6.327	1.6839	3.6677	1	41	0.676509539406922	0	1
"42"	1	15	1	-4	-7.38	1	6	-1	1	1.878	-7.1102	-3.9725	-7.0669	-3.9784	-6.3532	-11.368	-6.2397	-11.8075	3.4959	-14.7605	-14.0211	-6.5623	-3.9863	-13.1153	-9.9453	-4.9477	-15.101	-2.6032	-8.1987	-0.4546	0.333	0.333	0.333	0.333	0.333	0.333	0.333	0.333	0.333	0.333	0.333	0.333	0.333	0.333	0.333	0.333	0.333	0.333	0.333	6.327	1.4794	3.3619	1	42	0.630207380786071	0	1
"43"	1	9	1	-2	-3.69	0	7	-1	1	2.288	-5.6064	-0.8287	-4.2364	4.9806	-4.7361	-3.6405	-7.8085	-7.3865	-8.1957	8.1929	-4.085	-7.5366	-3.6409	-4.3615	-3.3672	5.3031	-4.3898	-7.2363	-3.9431	-11.9335	0.3376	0.4146	0.3536	0.4261	0.3492	0.2936	0.2001	0.4889	0.2656	0.2992	0.263	0.5108	0.2515	0.3212	0.2476	0.2094	0.2489	0.4801	0.3637	6.3247	1.6987	3.9887	1	43	0.827678073517551	0	1
"44"	1	48	1	2	3.69	1	7	1	1	2.133	5.3014	-2.9345	0.5984	7.7116	13.7926	3.8866	6.2267	-1.3812	-0.6277	4.0726	-1.5779	-5.5749	7.869	0.4134	14.1955	4.0627	1.8878	5.2446	4.3614	5.1795	0.333	0.333	0.333	0.333	0.333	0.333	0.333	0.333	0.333	0.333	0.333	0.333	0.333	0.333	0.333	0.333	0.333	0.333	0.333	6.327	1.4639	3.6005	1	44	0.757529439489213	1	0
"45"	1	33	1	1	1.845	1	7	-1	0	2.167	0.8963	-9.7944	-3.2128	-7.2074	2.2112	1.4719	1.3633	3.1246	2.7471	7.3554	2.9056	5.2613	6.5163	7.345	2.9141	0.9472	-3.1895	-2.0421	10.2138	5.3697	0.333	0.333	0.333	0.333	0.333	0.333	0.333	0.333	0.333	0.333	0.333	0.333	0.333	0.333	0.333	0.333	0.333	0.333	0.333	6.327	1.6772	3.8511	1	45	0.773343722554222	0	1
"46"	1	49	1	4	7.38	1	4	1	1	1.248	9.991	9.7978	11.9675	16.3824	10.2965	4.8948	3.2266	1.2228	8.7544	11.9951	5.2564	-1.7841	2.1402	2.7761	7.544	1.0684	12.9258	12.1383	4.1877	14.1495	0.333	0.333	0.333	0.333	0.333	0.333	0.333	0.333	0.333	0.333	0.333	0.333	0.333	0.333	0.333	0.333	0.333	0.333	0.333	6.327	1.6595	2.9155	1	46	0.221542269947236	1	0
"47"	1	55	1	2	3.69	0	6	1	1	1.885	2.5117	9.2788	2.6868	13.4249	7.9645	4.0103	-1.8342	6.5533	-2.4021	5.5877	9.9482	8.58	8.3785	-2.737	-0.7684	-0.979	3.1555	2.8313	-3.9633	0.0181	0.2114	0.2818	0.3386	0.4991	0.3449	0.4563	0.2269	0.3548	0.3217	0.2118	0.3761	0.2614	0.2101	0.4098	0.5031	0.4556	0.2217	0.253	0.385	6.3233	1.6531	3.5353	1	47	0.633927820899974	1	0
"48"	1	11	1	0	0	0	10	-1	1	3.27	0.0342	10.5524	-3.5391	6.5354	-5.621	-6.8051	2.3661	-2.9704	0.9408	-8.008	1.9861	9.2848	-4.4146	0.3953	-1.5287	0.0601	-1.2914	-0.7033	-2.7951	5.1701	0.3118	0.4339	0.2078	0.3615	0.2443	0.3711	0.2429	0.3855	0.3426	0.47	0.4321	0.3718	0.4463	0.288	0.3277	0.2614	0.2042	0.2867	0.328	6.3176	1.6107	4.8878	1	48	1.18478998490916	0	1
"49"	1	12	1	1	1.845	0	7	1	1	1.936	5.0376	-3.3107	-2.2674	4.7682	7.4363	2.5961	6.9941	-9.04	-5.0169	8.7182	0.1855	-3.8513	2.4228	-2.1949	3.6157	5.5084	7.3684	3.1281	7.2838	-1.0013	0.3688	0.2281	0.2026	0.2417	0.3718	0.4049	0.4647	0.5322	0.2995	0.224	0.4942	0.2062	0.2485	0.5165	0.2049	0.3805	0.3393	0.2536	0.338	6.32	1.5632	3.5036	1	49	0.660623988854385	1	0
"50"	1	21	1	4	7.38	1	6	1	1	1.737	6.8551	7.4014	4.0192	7.1851	14.8499	12.8284	8.3229	4.31	1.1882	4.1877	8.439	-0.1943	15.3546	4.4472	13.9888	6.6741	2.8321	16.2174	3.0211	4.4858	0.333	0.333	0.333	0.333	0.333	0.333	0.333	0.333	0.333	0.333	0.333	0.333	0.333	0.333	0.333	0.333	0.333	0.333	0.333	6.327	1.7241	3.4712	1	50	0.552159487258968	1	0
"51"	1	1	1	-4	-7.38	1	7	-1	1	2.096	-8.5963	-9.0278	-3.4821	-11.4458	-9.8113	-2.9373	1.2705	-18.4962	-6.6224	-6.4849	-10.4345	-6.7291	-13.394	-10.0285	0.549	-6.3495	-0.0171	-13.1728	-5.696	-5.3372	0.333	0.333	0.333	0.333	0.333	0.333	0.333	0.333	0.333	0.333	0.333	0.333	0.333	0.333	0.333	0.333	0.333	0.333	0.333	6.327	1.4974	3.6129	1	51	0.740030766458796	0	1
"52"	1	26	1	1	1.845	0	6	1	1	2.171	-1.5249	6.5189	13.3909	1.0255	7.8652	-4.2083	2.0527	-0.1644	-2.1494	1.893	1.7691	-4.4461	6.2734	0.316	4.3151	5.0531	0.2151	-8.7698	2.629	4.035	0.2356	0.2915	0.4585	0.332	0.4024	0.4835	0.3253	0.2442	0.2917	0.3303	0.4485	0.36	0.2732	0.4221	0.2439	0.2021	0.3538	0.4354	0.2021	6.3361	1.4858	3.6716	1	52	0.775187890896155	1	0
"53"	1	64	1	-4	-7.38	0	7	-1	1	2.316	-2.7517	-11.1006	-6.224	-9.9548	-2.9492	-12.2599	-0.2203	-9.4266	-6.745	-4.4546	-6.9913	-10.4701	-9.827	-6.5562	-5.5465	-6.514	-6.9663	1.5286	-5.6297	-22.7078	0.2745	0.3278	0.4571	0.3843	0.2606	0.4143	0.2568	0.2101	0.2371	0.3207	0.2934	0.2351	0.328	0.4561	0.3903	0.5187	0.2766	0.4708	0.2216	6.3336	1.4162	3.7503	1	53	0.839841559710749	0	1
"54"	1	6	1	2	3.69	1	8	1	1	2.52	-1.0628	3.4092	3.1575	8.3596	8.4173	2.0062	-0.5231	-3.6398	4.4551	12.4044	5.2781	3.8204	4.0616	4.9705	-8.9489	7.592	9.6953	8.1492	-1.8199	3.6898	0.333	0.333	0.333	0.333	0.333	0.333	0.333	0.333	0.333	0.333	0.333	0.333	0.333	0.333	0.333	0.333	0.333	0.333	0.333	6.327	1.4491	3.9879	1	54	0.924258901523332	1	0
"55"	1	67	1	0	0	0	13	-1	1	4.555	3.7403	-5.1194	9.4129	4.793	-0.3335	0.5317	-0.1069	2.4403	-4.3523	6.0377	-0.3513	-1.9293	-4.8617	1.7214	4.8133	-0.3008	-2.7184	-13.8635	1.1281	-1.6364	0.3965	0.2891	0.4076	0.3156	0.4222	0.3725	0.2509	0.4276	0.3189	0.3526	0.4278	0.2222	0.4651	0.2394	0.3082	0.2108	0.3863	0.2084	0.3096	6.3313	1.642	6.2058	1	55	1.51622553071192	0	1
"56"	1	70	1	4	7.38	0	9	1	1	2.979	4.1024	5.3468	10.2077	15.9128	-2.7276	13.9909	8.5241	13.9593	10.1886	6.7225	7.2499	5.5332	5.3493	10.9856	-3.2708	3.3314	7.5768	5.1419	11.2263	6.2909	0.35	0.2842	0.4126	0.2614	0.3791	0.3082	0.2182	0.3562	0.4178	0.3266	0.4311	0.2895	0.2515	0.3113	0.2857	0.4571	0.2024	0.4906	0.301	6.3345	1.5511	4.5466	1	56	1.09158767373115	1	0
"57"	1	20	1	2	3.69	1	9	1	1	2.942	3.4313	5.8989	-1.8957	1.8684	2.6119	14.2146	6.4236	6.1668	2.587	8.5452	8.1981	-11.8302	0.5768	2.1419	5.145	6.8713	1.8054	1.7401	4.6605	2.9232	0.333	0.333	0.333	0.333	0.333	0.333	0.333	0.333	0.333	0.333	0.333	0.333	0.333	0.333	0.333	0.333	0.333	0.333	0.333	6.327	1.4282	4.3762	1	57	1.07908962217925	1	0
"58"	1	4	1	0	0	1	6	-1	1	1.986	-1.1588	-10.3479	0.9032	2.806	5.4872	-4.3285	4.4093	2.921	1.6445	-7.9607	8.7706	2.8795	-1.588	-9.939	-3.8597	0.4215	0.4018	-0.4484	3.7833	3.7476	0.333	0.333	0.333	0.333	0.333	0.333	0.333	0.333	0.333	0.333	0.333	0.333	0.333	0.333	0.333	0.333	0.333	0.333	0.333	6.327	1.7249	3.7204	1	58	0.686122565622981	0	1
"59"	1	44	1	-2	-3.69	1	11	-1	1	3.606	-0.1642	-5.48	5.3688	-1.1091	-13.392	-4.6879	1.7162	4.0071	-11.8039	-4.3965	-2.1236	-1.5411	-2.5439	-10.295	0.5762	-1.3974	-2.483	-8.5955	-6.3445	-7.8578	0.333	0.333	0.333	0.333	0.333	0.333	0.333	0.333	0.333	0.333	0.333	0.333	0.333	0.333	0.333	0.333	0.333	0.333	0.333	6.327	1.4177	5.0237	1	59	1.28259912478113	0	1
"60"	1	8	1	-4	-7.38	0	8	-1	1	2.458	-5.7856	-1.0424	-7.437	-14.0522	-2.6326	-7.267	-5.9139	-21.0179	-9.0487	-11.0837	-9.2515	-9.6252	-8.1033	-4.1217	-2.1418	-6.4441	-12.553	-6.3992	-6.6988	2.1516	0.3442	0.373	0.2591	0.2093	0.2471	0.4394	0.3296	0.4989	0.309	0.269	0.2162	0.4309	0.3163	0.2447	0.5319	0.2999	0.3692	0.2496	0.3887	6.3263	1.6083	4.0751	1	60	0.899348011143843	0	1
"61"	1	17	1	-1	-1.845	1	8	1	0	2.525	-0.3801	0.9904	0.4984	-2.6015	-7.5513	5.5267	-2.9208	-5.7612	-0.2625	-12.0026	-9.5215	-1.9467	6.1971	-3.208	-8.3411	-2.7397	4.3636	-0.247	-0.5597	5.1823	0.333	0.333	0.333	0.333	0.333	0.333	0.333	0.333	0.333	0.333	0.333	0.333	0.333	0.333	0.333	0.333	0.333	0.333	0.333	6.327	1.436	3.959	1	61	0.926241062727323	1	0
"62"	1	65	1	-2	-3.69	0	7	-1	1	2.433	-8.3053	4.7016	-11.2321	-5.7283	-4.6213	-5.2602	-2.9628	2.0775	-3.2895	-0.3912	2.456	-6.4196	-4.3419	1.1221	-12.58	-11.0453	-0.2226	4.5504	-6.6375	-5.1848	0.2615	0.3961	0.4826	0.2444	0.3435	0.4646	0.2526	0.3008	0.4418	0.3021	0.3514	0.2761	0.3799	0.2418	0.3171	0.2633	0.3761	0.4051	0.2195	6.3203	1.6336	4.0842	1	62	0.889125063801385	0	1
"63"	1	16	1	-2	-3.69	1	14	-1	1	4.429	0.0153	0.377	-3.1627	-5.5282	1.2683	-7.9814	-9.3623	-9.1229	1.6938	-6.4411	5.5724	-10.5968	-6.4025	0.5748	4.6485	-9.5656	-10.4501	-1.6046	-3.1675	-3.6937	0.333	0.333	0.333	0.333	0.333	0.333	0.333	0.333	0.333	0.333	0.333	0.333	0.333	0.333	0.333	0.333	0.333	0.333	0.333	6.327	1.6631	6.113	1	63	1.48817382494106	0	1
"64"	1	41	1	2	3.69	0	9	1	1	2.459	7.3046	6.1831	0.5214	4.9752	1.7672	8.1131	4.86	-0.3425	-3.0605	-0.5101	7.7985	4.5256	17.9751	4.8421	4.8404	6.0347	-1.2195	0.8946	2.4878	-4.4863	0.3351	0.2046	0.3043	0.3383	0.2591	0.2329	0.4481	0.2651	0.2055	0.4046	0.3357	0.3066	0.4296	0.4863	0.218	0.2936	0.3285	0.4144	0.5157	6.3262	1.4197	3.8926	1	64	0.899754763234056	1	0
"65"	1	14	1	4	7.38	0	9	1	1	2.387	4.52	10.0036	12.8683	6.6734	15.0478	0.9164	-2.7238	-3.9034	3.6011	7.5752	9.0137	10.5001	7.4756	11.8117	12.0859	9.8923	7.2446	9.6744	7.2232	9.8396	0.2303	0.3719	0.2448	0.2924	0.4276	0.2223	0.2706	0.2315	0.4519	0.2611	0.4427	0.5326	0.2989	0.4995	0.3989	0.3111	0.2587	0.3009	0.2739	6.3216	1.4415	3.838	1	65	0.870037347356693	1	0
"66"	1	43	1	-4	-7.38	1	9	-1	1	2.851	-9.0202	-5.7146	-1.9187	-4.9217	-4.5689	-18.5802	-10.8162	-2.101	-8.3862	-4.817	1.6436	-3.3051	-12.478	-6.8202	-8.761	-9.7567	-7.8893	-10.3385	-2.1329	-16.23	0.333	0.333	0.333	0.333	0.333	0.333	0.333	0.333	0.333	0.333	0.333	0.333	0.333	0.333	0.333	0.333	0.333	0.333	0.333	6.327	1.6858	4.5516	1	66	1.04766980993053	0	1
"67"	1	36	1	-4	-7.38	0	9	-1	1	2.882	-8.0026	-18.0828	-0.7656	-11.7344	-6.0575	-1.0493	-7.3677	-1.0327	-9.779	-14.1781	-4.4026	-5.1233	-6.9395	-8.0038	-10.8266	-4.7823	-1.7837	-4.6942	-4.7511	-17.2184	0.2078	0.3462	0.4691	0.2449	0.2747	0.203	0.2646	0.4257	0.453	0.2278	0.3352	0.2607	0.369	0.4685	0.3204	0.2731	0.3013	0.4942	0.3918	6.331	1.6434	4.5327	1	67	1.05848449757733	0	1
"68"	1	58	1	-2	-3.69	1	11	1	0	3.497	-0.2007	3.6965	3.3425	-12.3199	-6.0977	-11.9471	-6.1665	-7.9737	-0.242	0.4096	-1.5532	-7.5926	-5.0819	1.8186	-4.1422	4.9437	-5.9328	-10.0457	-5.4648	-3.0366	0.333	0.333	0.333	0.333	0.333	0.333	0.333	0.333	0.333	0.333	0.333	0.333	0.333	0.333	0.333	0.333	0.333	0.333	0.333	6.327	1.4029	4.9142	1	68	1.25190545808124	1	0
"69"	1	39	1	0	0	0	4	1	0	1.358	3.2051	2.6393	0.8531	-3.7942	-6.1085	-4.8591	-0.5911	1.4836	-0.0806	1.0891	3.2714	1.5832	-12.2784	8.3907	-1.887	-6.135	8.096	-1.9467	2.9385	3.4162	0.253	0.4506	0.2179	0.4867	0.5147	0.4521	0.2787	0.3279	0.3545	0.3997	0.3314	0.2646	0.3457	0.2143	0.3705	0.2284	0.4007	0.2036	0.2322	6.3271	1.4908	2.8588	1	69	0.306013029136504	1	0
"70"	1	31	1	-1	-1.845	1	9	-1	1	2.866	2.442	-6.6813	4.564	-0.1058	-3.3668	-8.1464	-10.1846	-1.7345	0.6349	1.1292	-0.7893	2.848	4.9909	0.1714	-9.1249	-3.6141	-6.8486	-4.7537	-6.2773	6.7788	0.333	0.333	0.333	0.333	0.333	0.333	0.333	0.333	0.333	0.333	0.333	0.333	0.333	0.333	0.333	0.333	0.333	0.333	0.333	6.327	1.4519	4.3168	1	70	1.05291732940598	0	1
"71"	1	12	2	1	1.845	0	9	1	1	2.633	5.638	2.6052	0.5321	9.1665	-2.4333	1.8202	2.0611	0.1047	6.109	-4.5696	2.9747	-2.1225	-6.8229	3.0843	9.8397	6.5037	-3.8725	10.6193	-2.6952	-2.3063	0.2364	0.4915	0.3002	0.2218	0.3706	0.3201	0.37	0.2971	0.3543	0.2604	0.4149	0.3292	0.4092	0.2482	0.3511	0.2318	0.2767	0.3481	0.5038	6.3353	1.5689	4.2168	1	71	0.968123880514172	1	0
"72"	1	2	2	-2	-3.69	1	8	-1	1	2.642	-2.2493	-5.6463	-8.9604	-3.5089	-5.3536	-8.1924	6.4997	-3.5139	-7.5278	1.5371	-14.7752	-6.6593	0.9611	-2.5522	-5.3854	4.755	-0.1045	-3.174	-9.7728	-1.0096	0.333	0.333	0.333	0.333	0.333	0.333	0.333	0.333	0.333	0.333	0.333	0.333	0.333	0.333	0.333	0.333	0.333	0.333	0.333	6.327	1.5974	4.2592	1	72	0.971536206100134	0	1
"73"	1	20	2	2	3.69	1	8	1	1	2.553	-1.1961	4.1641	4.648	2.6743	-2.9237	10.9708	2.6132	9.8222	10.3824	8.3499	-4.8945	13.4465	4.0683	-3.7783	3.0295	3.3981	1.3669	4.0896	0.4333	4.5786	0.333	0.333	0.333	0.333	0.333	0.333	0.333	0.333	0.333	0.333	0.333	0.333	0.333	0.333	0.333	0.333	0.333	0.333	0.333	6.327	1.4653	4.0373	1	73	0.937269138259347	1	0
"74"	1	60	2	0	0	1	8	-1	1	2.582	4.1846	-0.7721	-1.644	-10.4086	2.538	-4.6957	-0.679	-5.9279	-2.5745	-0.2979	0.3802	7.963	-3.7533	2.3842	8.865	2.1011	-4.0847	-0.2686	-2.067	9.3253	0.333	0.333	0.333	0.333	0.333	0.333	0.333	0.333	0.333	0.333	0.333	0.333	0.333	0.333	0.333	0.333	0.333	0.333	0.333	6.327	1.608	4.1993	1	74	0.948564292424451	0	1
"75"	1	21	2	4	7.38	1	7	1	1	2.048	10.414	4.7254	5.2965	5.7401	15.8241	7.0758	0.0974	12.4977	8.2039	8.6414	3.751	5.0259	7.3974	14.5571	12.8464	9.2418	-6.1857	7.0769	7.5592	6.5822	0.333	0.333	0.333	0.333	0.333	0.333	0.333	0.333	0.333	0.333	0.333	0.333	0.333	0.333	0.333	0.333	0.333	0.333	0.333	6.327	1.5343	3.5985	1	75	0.716863707177261	1	0
"76"	1	26	2	1	1.845	0	10	1	1	2.688	-0.0633	-1.9562	1.4505	-5.1874	2.8475	10.6689	10.0732	-0.6171	-1.4281	4.2663	13.2226	1.5551	-3.1991	-2.0104	4.8431	-1.5561	2.7042	-3.0849	-0.571	6.0525	0.2311	0.3106	0.2062	0.351	0.2877	0.211	0.4056	0.2337	0.2674	0.3301	0.2205	0.4632	0.3066	0.4038	0.4783	0.4234	0.5197	0.2462	0.4347	6.3307	1.4782	4.1724	1	76	0.988797422660903	1	0
"77"	1	38	2	-1	-1.845	0	9	-1	1	2.998	-2.7188	0.4269	-2.8339	-0.2133	9.585	6.2327	-2.7484	0.7113	-1.9738	-3.182	-1.5978	-16.0186	-0.2583	-1.4478	-2.7654	-5.3384	-0.7547	-5.6901	-1.4236	-5.4787	0.3139	0.3661	0.263	0.4097	0.2577	0.4884	0.2178	0.5247	0.291	0.2309	0.3203	0.2147	0.3616	0.2993	0.3671	0.5245	0.295	0.371	0.2182	6.3346	1.4147	4.4154	1	77	1.09794539968041	0	1
"78"	1	62	2	2	3.69	1	7	1	1	2.192	2.6537	-0.4552	6.5391	6.9321	5.1172	-0.0441	0.2685	-5.2049	5.4149	0.936	1.7434	4.76	-5.3824	5.5015	14.5844	5.3066	13.6069	2.5606	2.9612	7.0625	0.333	0.333	0.333	0.333	0.333	0.333	0.333	0.333	0.333	0.333	0.333	0.333	0.333	0.333	0.333	0.333	0.333	0.333	0.333	6.327	1.4431	3.6423	1	78	0.784814369085769	1	0
"79"	1	13	2	2	3.69	0	12	1	1	3.625	0.6093	19.0626	11.2819	5.2309	-3.2542	0.1029	3.1366	1.7062	-3.9574	4.5812	3.5546	5.0108	3.5307	1.9857	3.1237	3.2212	6.2481	6.4589	1.7824	1.291	0.2232	0.4992	0.3628	0.2332	0.5021	0.232	0.2781	0.2115	0.4033	0.243	0.4341	0.347	0.4204	0.26	0.3354	0.526	0.2909	0.2333	0.2948	6.3302	1.4804	5.1087	1	79	1.28785428830664	1	0
"80"	1	50	2	-4	-7.38	0	9	-1	1	2.642	-7.7113	-9.1383	-13.9641	-11.8671	-3.5427	-4.4018	-16.955	-14.3579	-0.7928	-12.0278	0.4143	-8.2075	-7.4493	-6.372	-11.3502	-6.4812	-3.4418	0.851	-5.2989	-5.7978	0.3791	0.2983	0.3331	0.4461	0.3213	0.2108	0.2514	0.3329	0.2258	0.3581	0.2418	0.3828	0.3521	0.524	0.2501	0.3347	0.2746	0.4387	0.374	6.3297	1.6052	4.2423	1	80	0.971536206100134	0	1
"81"	1	8	2	-4	-7.38	0	7	-1	1	2.139	-12.3134	-10.6855	-7.3705	1.5046	-0.5256	-8.75	-7.3689	-18.1942	-5.5761	-9.1453	-4.8647	0.4733	-8.705	-14.6	-11.5355	-7.7875	-4.6207	-4.1433	-4.3587	-10.7032	0.3981	0.2384	0.3979	0.2053	0.296	0.2298	0.4347	0.2955	0.5054	0.3194	0.208	0.4382	0.2113	0.3826	0.2187	0.4159	0.3232	0.3769	0.435	6.3303	1.7165	3.8734	1	81	0.760338430100268	0	1
"82"	1	41	2	2	3.69	0	10	1	1	3.356	3.9294	0.2886	4.1805	-1.1811	12.2487	-5.3576	-3.5513	13.3287	6.833	2.8155	-1.8115	0.2346	2.6421	5.1951	3.7758	12.8404	6.8472	3.5737	3.4383	3.0053	0.2134	0.3114	0.4437	0.2283	0.2863	0.5238	0.308	0.5275	0.2244	0.3151	0.2064	0.4818	0.3425	0.4028	0.328	0.3934	0.3568	0.2048	0.2323	6.3308	1.6926	5.0566	1	82	1.21074978860496	1	0
"83"	1	34	2	2	3.69	1	8	1	1	2.332	0.3343	11.3695	11.4359	3.8263	6.2281	4.8727	10.034	4.0467	12.6716	-0.5747	4.6252	-6.7832	-2.297	0.4154	5.851	-2.7713	2.9632	3.2268	3.3077	0.7934	0.333	0.333	0.333	0.333	0.333	0.333	0.333	0.333	0.333	0.333	0.333	0.333	0.333	0.333	0.333	0.333	0.333	0.333	0.333	6.327	1.6274	3.966	1	83	0.846726268488246	1	0
"84"	1	55	2	2	3.69	0	8	1	1	2.618	7.5042	7.1603	-1.6396	-0.8406	5.6191	-1.5982	3.9404	2.2832	14.0087	-6.7446	0.7767	5.7791	0.4623	7.1493	0.7291	1.9536	8.2492	1.0781	8.7429	9.3141	0.4846	0.3082	0.3462	0.4832	0.2867	0.2301	0.3705	0.2516	0.2064	0.4366	0.2309	0.4254	0.4735	0.2124	0.3718	0.4361	0.2342	0.2921	0.256	6.3365	1.4127	4.0357	1	84	0.962410667487708	1	0
"85"	1	28	2	4	7.38	0	7	1	1	2.359	10.7458	10.8177	8.5822	6.4335	2.0886	14.3171	7.8237	-1.5765	5.6492	8.6641	-1.8154	7.2358	16.4522	7.6945	10.6264	11.7671	12.133	1.4629	0.6679	7.9309	0.4631	0.4064	0.3328	0.4078	0.3541	0.3123	0.2294	0.4926	0.3232	0.2437	0.2029	0.3327	0.387	0.2407	0.4011	0.2933	0.2546	0.4275	0.2134	6.3186	1.5648	3.9267	1	85	0.858237800425538	1	0
"86"	1	16	2	-2	-3.69	1	8	-1	1	2.509	-5.6871	-7.4378	-7.4291	1.3886	-7.272	2.892	-4.1335	-4.2168	5.0345	0.8757	-7.5127	-3.2651	-9.8974	5.2046	-0.9695	-11.4378	-3.092	-1.2844	-1.9407	-11.7351	0.333	0.333	0.333	0.333	0.333	0.333	0.333	0.333	0.333	0.333	0.333	0.333	0.333	0.333	0.333	0.333	0.333	0.333	0.333	6.327	1.574	4.0927	1	86	0.919884267384285	0	1
"87"	1	33	2	1	1.845	1	8	1	1	2.365	6.3553	-0.3127	10.7916	9.1031	-4.8392	11.2657	1.0314	1.2642	-7.3491	-2.6876	1.5239	-2.2987	-3.321	0.035	1.8913	5.1368	2.122	1.1246	5.6206	-0.6677	0.333	0.333	0.333	0.333	0.333	0.333	0.333	0.333	0.333	0.333	0.333	0.333	0.333	0.333	0.333	0.333	0.333	0.333	0.333	6.327	1.7198	4.0995	1	87	0.860778021943896	1	0
"88"	1	4	2	0	0	1	8	-1	1	2.603	3.1395	5.4717	-3.0098	4.4322	-5.718	1.9749	3.6616	2.0024	-8.7963	-2.154	-1.0828	-6.9397	5.0513	8.4508	-3.5578	0.4376	0.3584	2.1891	3.8027	-9.2609	0.333	0.333	0.333	0.333	0.333	0.333	0.333	0.333	0.333	0.333	0.333	0.333	0.333	0.333	0.333	0.333	0.333	0.333	0.333	6.327	1.6137	4.2205	1	88	0.956664626012428	0	1
"89"	1	32	2	0	0	1	7	-1	0	2.322	-3.1261	4.0091	5.5789	1.9858	-1.3067	-1.5736	-2.3126	-2.973	3.9472	-2.7955	1.5438	3.2231	1.8479	-7.6425	-5.0154	-3.3093	-10.3465	7.2129	10.6788	1.7966	0.333	0.333	0.333	0.333	0.333	0.333	0.333	0.333	0.333	0.333	0.333	0.333	0.333	0.333	0.333	0.333	0.333	0.333	0.333	6.327	1.7287	4.056	1	89	0.8424288832757	0	1
"90"	1	69	2	2	3.69	0	6	1	1	2.003	7.336	-1.141	3.4578	3.7114	9.0029	1.7343	-1.6668	3.8786	6.2432	13.9598	0.0085	-0.3537	5.3944	-9.3799	6.391	1.5045	5.3614	9.85	7.1497	1.3618	0.2691	0.352	0.4222	0.2655	0.435	0.3364	0.2294	0.2801	0.4373	0.2533	0.4071	0.2139	0.3083	0.3844	0.4516	0.3741	0.2633	0.4259	0.214	6.3228	1.5461	3.5539	1	90	0.694646056683681	1	0
"91"	1	59	2	-1	-1.845	1	12	-1	1	3.784	-0.7833	4.1538	-8.4978	3.6595	2.4399	0.7281	-2.7396	0.7551	2.3978	-5.9695	1.7344	-10.0423	-7.7262	0.2811	-3.3426	-11.9248	-1.6538	-3.9709	-2.4369	6.514	0.333	0.333	0.333	0.333	0.333	0.333	0.333	0.333	0.333	0.333	0.333	0.333	0.333	0.333	0.333	0.333	0.333	0.333	0.333	6.327	1.7271	5.5186	1	91	1.33078165118963	0	1
"92"	1	46	2	0	0	1	11	-1	1	3.457	1.6466	4.8236	-0.8933	2.1041	-6.4249	-1.4641	-2.7222	-2.3553	1.2554	5.6792	0.5083	0.9543	-8.8627	12.0965	-6.9998	-5.9138	-0.0692	6.2225	0.8495	-1.5198	0.333	0.333	0.333	0.333	0.333	0.333	0.333	0.333	0.333	0.333	0.333	0.333	0.333	0.333	0.333	0.333	0.333	0.333	0.333	6.327	1.6952	5.1747	1	92	1.24040116093949	0	1
"93"	1	6	2	2	3.69	1	11	1	1	3.349	2.5211	3.4825	-0.6776	8.3917	2.0842	9.4177	3.9503	4.3653	5.0521	0.3922	-9.8779	10.0243	-1.3697	6.4445	11.4961	1.6046	-0.0626	9.7661	5.5828	2.1776	0.333	0.333	0.333	0.333	0.333	0.333	0.333	0.333	0.333	0.333	0.333	0.333	0.333	0.333	0.333	0.333	0.333	0.333	0.333	6.327	1.7172	5.0829	1	93	1.20866179381207	1	0
"94"	1	67	2	0	0	0	9	-1	1	2.881	-2.5371	-5.9777	6.4253	1.3469	-8.3304	-3.0203	-0.9986	-0.1208	12.0429	5.046	-7.8879	-1.0714	3.4995	-0.0578	1.2673	6.8717	-4.1215	-0.472	-0.3049	-2.0849	0.2967	0.4473	0.3079	0.2506	0.385	0.4355	0.2394	0.5178	0.2326	0.4245	0.2321	0.207	0.3845	0.3482	0.2098	0.3624	0.4162	0.2172	0.4139	6.3288	1.4088	4.298	1	94	1.05813745610239	0	1
"95"	1	68	2	1	1.845	0	14	1	1	4.253	6.1771	-1.0073	-2.7478	-2.0032	7.2312	-5.6749	2.7114	11.5972	2.2246	1.149	11.0286	-2.504	4.2093	-5.2843	3.3597	3.6986	-3.5989	-1.6904	2.587	4.4224	0.2026	0.3395	0.5211	0.3246	0.2763	0.3759	0.3309	0.3624	0.445	0.3219	0.2355	0.3084	0.2036	0.245	0.3033	0.3424	0.4824	0.4448	0.2631	6.3287	1.5255	5.7869	1	95	1.4476246162715	1	0
"96"	1	1	2	-4	-7.38	1	9	-1	1	2.793	-10.8886	-3.0259	-18.4393	-2.9122	-1.1144	-8.7541	-4.2368	-11.9139	-9.2631	-5.1535	-9.6885	-4.0148	-11.3371	0.6545	-10.357	-13.3318	-8.9315	-4.937	0.7373	-9.1913	0.333	0.333	0.333	0.333	0.333	0.333	0.333	0.333	0.333	0.333	0.333	0.333	0.333	0.333	0.333	0.333	0.333	0.333	0.333	6.327	1.5038	4.3101	1	96	1.02711628696304	0	1
"97"	1	66	2	-1	-1.845	0	11	1	0	3.457	-5.4125	0.1745	2.1441	1.984	0.6918	1.3065	5.3492	-1.419	-0.757	3.1856	-2.3959	2.2537	-5.7109	-2.5915	-1.2123	-15.5839	-2.4254	-10.7475	0.8871	-5.7261	0.2134	0.4483	0.2987	0.2477	0.3225	0.3642	0.2404	0.3493	0.4294	0.2481	0.3455	0.4421	0.4131	0.2012	0.3509	0.2597	0.339	0.4568	0.3596	6.3301	1.6763	5.1411	1	97	1.24040116093949	1	0
"98"	1	42	2	4	7.38	0	6	1	1	2.003	4.9065	8.5273	9.1121	13.5756	13.4805	-1.4799	5.8687	-0.0471	12.7628	9.1547	12.0365	8.1447	-3.7064	5.7399	5.4168	3.8396	8.7723	10.7827	6.1101	12.9729	0.3978	0.2333	0.389	0.2852	0.4103	0.519	0.3242	0.258	0.3049	0.2378	0.2701	0.2094	0.389	0.4373	0.3822	0.2098	0.2485	0.3635	0.4561	6.3255	1.4617	3.4705	1	98	0.694646056683681	1	0
"99"	1	11	2	0	0	0	11	-1	1	3.725	-3.6526	5.0874	6.9999	-3.1028	-4.6948	-5.7806	-0.0713	0.5094	2.4301	-4.6946	-3.2287	3.1093	1.8723	-8.5959	6.5357	-4.9369	7.5791	6.659	1.589	-3.1031	0.4372	0.236	0.476	0.3383	0.4627	0.2948	0.2433	0.3764	0.3067	0.2003	0.3733	0.4216	0.2106	0.3547	0.2018	0.3814	0.2521	0.4188	0.3366	6.3228	1.6392	5.3756	1	99	1.31506685183152	0	1
"100"	1	48	2	2	3.69	1	7	1	1	2.275	4.4154	4.6958	-0.4063	11.6671	6.1339	3.3386	2.9491	10.0505	-7.0812	1.7453	-2.4823	2.5134	6.063	-1.9862	15.5573	5.8787	1.7224	6.4947	3.0763	0.8262	0.333	0.333	0.333	0.333	0.333	0.333	0.333	0.333	0.333	0.333	0.333	0.333	0.333	0.333	0.333	0.333	0.333	0.333	0.333	6.327	1.4865	3.7595	1	100	0.821980052402914	1	0
"101"	1	36	2	-4	-7.38	0	11	-1	1	3.544	-12.379	-1.5361	-4.0549	-5.3907	-3.0483	1.5383	-9.9433	-12.3691	-6.5354	2.6471	-13.9601	-10.5442	-7.8925	-9.7734	-9.1944	-13.4693	-14.2124	-7.598	-6.4018	-2.142	0.2339	0.3252	0.3635	0.4755	0.3647	0.2704	0.3972	0.2783	0.2413	0.4189	0.2824	0.3365	0.2399	0.3537	0.393	0.224	0.3544	0.3073	0.4724	6.3326	1.4296	4.978	1	101	1.26525603274283	0	1
"102"	1	56	2	4	7.38	0	9	1	1	2.907	4.8685	2.9996	8.8848	7.2244	8.5952	0.8487	1.4696	19.4726	3.8161	13.0518	10.169	6.258	-1.6933	4.843	9.8135	13.8943	4.9962	13.8091	6.5441	8.9185	0.389	0.4271	0.4879	0.3181	0.2243	0.3241	0.2057	0.2809	0.4632	0.2441	0.3256	0.2083	0.4471	0.2406	0.3702	0.2579	0.3732	0.4415	0.3077	6.3363	1.7088	4.6245	1	102	1.06712162157674	1	0
"103"	1	37	2	-2	-3.69	0	11	-1	1	3.591	0.5236	-6.1142	2.0418	-10.5584	2.856	-8.9595	-7.8948	0.013	-1.636	-0.8288	-7.9206	4.4169	-15.2722	-4.8096	-0.9703	-3.6537	-4.4101	-7.9349	-1.7122	0.8483	0.4551	0.2867	0.2135	0.4731	0.4318	0.3159	0.4199	0.2661	0.2357	0.345	0.5168	0.2033	0.388	0.211	0.4972	0.2934	0.2185	0.3034	0.2458	6.3201	1.4302	5.0417	1	103	1.27843071524395	0	1
"104"	1	14	2	4	7.38	0	9	1	1	2.551	11.3404	13.1141	6.9034	9.6678	2.93	1.4805	12.989	6.5283	3.1884	14.1162	2.8578	3.3279	12.177	13.1198	1.1039	8.872	-2.9368	10.4024	5.489	9.7287	0.2035	0.2807	0.5119	0.2367	0.3063	0.4453	0.2597	0.3045	0.2234	0.3511	0.411	0.494	0.2052	0.323	0.451	0.3367	0.2338	0.276	0.4669	6.3207	1.6797	4.2517	1	104	0.936485439159674	1	0
"105"	1	54	2	1	1.845	0	11	-1	0	3.458	2.4434	5.0806	-2.0529	6.5927	5.4258	-4.2364	7.2426	-6.7845	7.4639	1.2371	9.8206	-5.6206	2.1331	-2.7706	6.6947	1.1144	4.4566	1.782	-6.4922	2.9262	0.2169	0.288	0.3374	0.4612	0.3129	0.5103	0.2254	0.3077	0.4933	0.209	0.4524	0.2986	0.2707	0.342	0.2332	0.4603	0.2706	0.3346	0.3065	6.331	1.5253	4.9923	1	105	1.2406903872611	0	1
"106"	1	15	2	-4	-7.38	1	13	-1	1	4.267	-9.0789	4.2925	-8.9626	-2.08	-7.0657	-5.4984	-7.0122	-4.349	-6.2993	-3.5926	-10.4564	-15.6605	-14.2352	-3.9502	-8.3574	-3.9336	-9.0603	-14.3683	-14.7844	-2.365	0.333	0.333	0.333	0.333	0.333	0.333	0.333	0.333	0.333	0.333	0.333	0.333	0.333	0.333	0.333	0.333	0.333	0.333	0.333	6.327	1.4169	5.701	1	106	1.45091100420586	0	1
"107"	1	40	2	1	1.845	0	12	1	1	3.955	1.0847	1.6358	3.5202	-9.3598	12.4231	4.4971	8.9148	7.5013	-0.1265	-1.1479	4.6133	2.7264	-3.9375	1.9597	-6.6358	3.6994	3.0495	-0.5445	-1.012	5.184	0.2005	0.2954	0.4623	0.4894	0.2605	0.2895	0.2337	0.3357	0.4879	0.4352	0.3603	0.3048	0.275	0.2347	0.3328	0.3005	0.371	0.2944	0.3727	6.3364	1.7294	5.6892	1	107	1.37498060121962	1	0
"108"	1	29	2	-4	-7.38	1	7	-1	1	2.003	-3.093	-9.0831	-8.7016	-8.336	-11.193	-12.3597	-10.825	-17.6837	-8.5315	-2.2488	-16.0723	-6.4923	-7.4246	-4.8311	-0.7638	-3.9538	-4.7403	-2.0457	2.0961	-10.6246	0.333	0.333	0.333	0.333	0.333	0.333	0.333	0.333	0.333	0.333	0.333	0.333	0.333	0.333	0.333	0.333	0.333	0.333	0.333	6.327	1.4027	3.4202	1	108	0.694646056683681	0	1
"109"	1	61	2	1	1.845	1	5	1	1	1.563	1.0985	5.3061	7.4122	-3.0197	10.2121	-2.8909	0.9756	0.7057	-3.1638	-4.3621	0.2361	0.6227	13.4943	2.5027	5.5679	4.4325	1.3343	-1.7031	-6.3307	4.001	0.333	0.333	0.333	0.333	0.333	0.333	0.333	0.333	0.333	0.333	0.333	0.333	0.333	0.333	0.333	0.333	0.333	0.333	0.333	6.327	1.5136	3.08	1	109	0.44660705143934	1	0
"110"	1	5	2	1	1.845	1	11	1	1	3.452	1.7738	-8.7928	0.6709	-9.0127	1.9478	10.2062	5.0808	-0.5474	0.5812	7.1094	7.3189	2.9237	6.6557	1.3599	2.6586	-0.2992	0.1738	-4.3296	5.0517	6.0632	0.333	0.333	0.333	0.333	0.333	0.333	0.333	0.333	0.333	0.333	0.333	0.333	0.333	0.333	0.333	0.333	0.333	0.333	0.333	6.327	1.4017	4.8533	1	110	1.23895377322118	1	0
"111"	1	3	2	-1	-1.845	1	8	-1	1	2.357	-2.4245	-2.738	5.5184	-4.8834	-7.7968	-13.9098	1.84	9.7786	-0.5503	0.9192	-2.1346	0.123	-2.4781	-6.1924	-2.4432	-5.7112	-5.5277	2.6793	2.3585	-2.027	0.333	0.333	0.333	0.333	0.333	0.333	0.333	0.333	0.333	0.333	0.333	0.333	0.333	0.333	0.333	0.333	0.333	0.333	0.333	6.327	1.6034	3.9582	1	111	0.857389623953994	0	1
"112"	1	25	2	0	0	0	14	1	1	4.358	2.8153	0.8351	0.0633	-8.2072	-4.3375	0.2054	3.2079	-4.2411	5.7233	3.2196	2.077	1.9947	-3.796	-10.4045	6.0233	3.7022	9.1094	-2.6093	-7.2668	1.2312	0.2818	0.3525	0.276	0.3267	0.2285	0.2763	0.3767	0.2942	0.2505	0.2846	0.5056	0.3131	0.5178	0.2996	0.2319	0.2674	0.4486	0.5308	0.2631	6.3256	1.4081	5.7754	1	112	1.47201323652243	1	0
"113"	1	17	2	-1	-1.845	1	9	-1	1	2.794	3.0386	-4.6776	-9.7936	-8.4327	-5.2062	8.6464	-0.4948	3.3002	-9.3618	-3.9837	-5.6492	-2.8392	-2.913	5.3527	2.2843	3.3738	-2.6692	-4.2694	-1.0238	-1.0679	0.333	0.333	0.333	0.333	0.333	0.333	0.333	0.333	0.333	0.333	0.333	0.333	0.333	0.333	0.333	0.333	0.333	0.333	0.333	6.327	1.4565	4.2619	1	113	1.02747426083477	0	1
"114"	1	22	2	-4	-7.38	0	7	-1	1	2.417	-10.6015	-13.8307	-6.4147	-7.2993	-2.4193	-10.3347	-16.5041	0.4661	-13.2919	-1.8559	-4.0289	-8.1528	-3.3049	-3.2876	-9.1695	-7.1962	-9.3798	-15.8297	-3.1037	-2.4235	0.3748	0.2099	0.2483	0.2062	0.5232	0.4906	0.3754	0.4283	0.4536	0.227	0.268	0.2283	0.3075	0.3717	0.2279	0.3725	0.4388	0.3542	0.2258	6.332	1.7146	4.1515	1	114	0.882527101721346	0	1
"115"	1	53	2	0	0	0	10	1	1	3.058	-4.1139	11.573	8.3729	-1.9024	-3.2355	-0.4167	-4.0455	-6.4921	-4.1347	2.3641	-2.8151	4.0425	0.1511	-7.1132	0.1365	3.9574	7.1067	-4.956	-0.6948	2.0894	0.2519	0.4496	0.344	0.3707	0.1998	0.3905	0.3214	0.2398	0.3406	0.476	0.5047	0.215	0.3375	0.2172	0.4491	0.3568	0.3246	0.2379	0.309	6.3362	1.5682	4.6417	1	115	1.11776110750687	1	0
"116"	1	70	2	4	7.38	0	8	1	1	2.132	4.3917	8.029	13.5265	4.7048	6.2576	2.23	10.9697	11.438	8.6202	14.7714	-4.0258	1.681	14.9876	2.0974	6.0141	4.7428	8.4909	6.7231	8.8349	14.5506	0.2164	0.3987	0.311	0.2718	0.3683	0.2772	0.2292	0.4724	0.2864	0.2467	0.4114	0.5047	0.3897	0.3256	0.2963	0.2441	0.342	0.2448	0.4834	6.3201	1.5601	3.6995	1	116	0.757060506303598	1	0
"117"	1	65	2	-2	-3.69	0	10	-1	1	3.365	-2.2173	-6.3474	-2.5515	5.0969	2.7128	-7.6087	-1.246	2.1355	-10.409	1.4595	-1.8512	-9.5158	-1.1467	-10.1298	-12.3102	-3.7257	-5.7401	-8.0379	0.0085	-0.6915	0.4508	0.5133	0.3135	0.4585	0.2032	0.4119	0.3472	0.3945	0.2059	0.2346	0.2656	0.4047	0.2013	0.2436	0.2866	0.337	0.4884	0.2684	0.3055	6.3347	1.6398	5.0158	1	117	1.21342796309669	0	1
"118"	1	57	2	-4	-7.38	1	6	-1	1	1.903	-9.6561	-12.9313	-14.2916	0.7109	-8.5666	-3.0549	-12.3385	-6.0704	0.5069	-1.7831	-8.5599	-9.5341	-12.3091	-14.4649	-9.0763	-10.2878	-7.6904	-7.1613	-4.3805	2.1025	0.333	0.333	0.333	0.333	0.333	0.333	0.333	0.333	0.333	0.333	0.333	0.333	0.333	0.333	0.333	0.333	0.333	0.333	0.333	6.327	1.4342	3.3537	1	118	0.643431588314012	0	1
"119"	1	51	2	-2	-3.69	0	9	-1	1	3.176	-2.8179	4.755	-7.9961	-2.8215	-7.1836	-5.3571	-11.243	1.8567	-9.1075	-3.5063	-5.4111	-2.0912	4.0315	-7.5605	-3.6177	-8.1516	-5.7967	-0.4893	-6.8947	6.9669	0.3502	0.2582	0.2159	0.4778	0.222	0.4722	0.404	0.4798	0.3025	0.1998	0.2481	0.4091	0.338	0.3123	0.4416	0.2113	0.389	0.3337	0.2531	6.3186	1.5933	4.7769	1	119	1.15562254338489	0	1
"120"	1	45	2	-1	-1.845	1	9	-1	1	2.68	-4.9207	2.2146	-7.3151	0.0101	-3.7541	0.1119	4.8212	-0.6166	5.0869	0.2951	-7.6616	8.229	-3.8322	-11.073	-4.0458	-2.2432	-6.5092	3.5997	-8.3043	-2.6504	0.333	0.333	0.333	0.333	0.333	0.333	0.333	0.333	0.333	0.333	0.333	0.333	0.333	0.333	0.333	0.333	0.333	0.333	0.333	6.327	1.4711	4.1642	1	120	0.985816794522765	0	1
"121"	1	47	2	1	1.845	1	8	1	1	2.636	3.9218	-6.6887	2.5235	5.3341	-2.7122	12.3546	-3.6629	0.0387	7.8712	8.8372	7.1665	4.4316	-2.0785	-0.2969	-0.8583	4.9915	-4.2535	2.4851	1.4777	-2.6189	0.333	0.333	0.333	0.333	0.333	0.333	0.333	0.333	0.333	0.333	0.333	0.333	0.333	0.333	0.333	0.333	0.333	0.333	0.333	6.327	1.6978	4.3373	1	121	0.969262616640261	1	0
"122"	1	49	2	4	7.38	1	6	1	1	1.669	12.1625	13.2169	15.0504	14.1705	3.8346	3.5755	8.4952	1.3396	9.432	5.1922	12.2971	-0.0234	11.2135	8.8256	8.4873	6.9083	-0.9534	9.5606	-1.3988	4.9756	0.333	0.333	0.333	0.333	0.333	0.333	0.333	0.333	0.333	0.333	0.333	0.333	0.333	0.333	0.333	0.333	0.333	0.333	0.333	6.327	1.5265	3.2029	1	122	0.512224644679698	1	0
"123"	1	24	2	-1	-1.845	0	8	-1	1	2.33	0.0805	-5.7442	-9.2439	2.9137	-9.0417	-0.9156	3.7887	-0.8375	3.0351	0.5598	2.9997	5.5073	-4.501	-4.3559	1.0222	-3.9967	-7.0363	0.7634	-13.1587	1.9284	0.3097	0.2436	0.4702	0.3199	0.2454	0.302	0.4293	0.2677	0.2973	0.4125	0.3381	0.3869	0.3458	0.3716	0.2474	0.206	0.3089	0.3353	0.4855	6.3231	1.7099	4.0474	1	123	0.845868267577609	0	1
"124"	1	63	2	4	7.38	1	8	1	1	2.383	11.1659	18.3294	10.5059	3.1246	10.9503	5.4952	3.8349	6.7205	-0.9586	4.561	-1.4172	11.0464	4.5209	7.8851	9.1345	3.1091	6.18	12.2692	7.6202	15.093	0.333	0.333	0.333	0.333	0.333	0.333	0.333	0.333	0.333	0.333	0.333	0.333	0.333	0.333	0.333	0.333	0.333	0.333	0.333	6.327	1.4458	3.8505	1	124	0.868360198116605	1	0
"125"	1	18	2	0	0	1	9	-1	1	2.903	-4.3704	5.9096	1.3415	-3.1344	-3.9279	0.7547	-2.5413	5.1824	6.2513	-9.2804	-1.9979	3.6	-11.6758	0.4248	3.8675	4.3254	-0.5922	-3.8483	5.1034	4.9477	0.333	0.333	0.333	0.333	0.333	0.333	0.333	0.333	0.333	0.333	0.333	0.333	0.333	0.333	0.333	0.333	0.333	0.333	0.333	6.327	1.6409	4.5539	1	125	1.06574468504249	0	1
"126"	1	27	2	2	3.69	0	10	1	1	2.811	0.6815	0.261	-5.9774	1.5583	11.3803	11.2402	9.7273	-2.4041	9.5039	6.8396	6.5041	-1.6936	2.4556	2.267	2.9044	8.0194	8.8803	-0.0545	-0.5556	1.775	0.311	0.5084	0.2727	0.3884	0.2043	0.2296	0.2871	0.3315	0.2333	0.4599	0.2347	0.3593	0.3075	0.3759	0.3198	0.2805	0.3455	0.3735	0.5087	6.3316	1.5887	4.4116	1	126	1.03354029192439	1	0
"127"	1	23	2	-2	-3.69	0	8	-1	1	2.193	-0.2183	-0.4123	-7.2211	-5.3897	5.5956	-8.2779	-1.625	-14.1298	-7.6007	1.4285	-3.7992	-5.3073	-10.0823	2.849	-0.0056	-5.8976	1.5903	-0.7299	-5.5903	-7.2897	0.4703	0.3933	0.2897	0.2093	0.2659	0.3224	0.2004	0.2517	0.4773	0.2028	0.4503	0.386	0.4511	0.2878	0.2236	0.2847	0.5062	0.4448	0.2053	6.3232	1.5052	3.7105	1	127	0.785270469435751	0	1
"128"	1	39	2	0	0	0	6	1	0	1.68	4.6499	5.9506	10.2739	1.5909	-4.6664	-3.8065	-0.7202	2.6434	-10.3977	5.3442	-0.7165	2.6347	-8.1744	-3.2142	3.8301	-0.5347	-0.0691	2.1694	-3.757	-1.7088	0.2164	0.4634	0.2789	0.3927	0.2008	0.2288	0.503	0.4022	0.2253	0.256	0.2887	0.2302	0.4526	0.3925	0.3358	0.4733	0.3091	0.4034	0.2816	6.3347	1.7035	3.3973	1	128	0.518793793415168	1	0
"129"	1	30	2	-2	-3.69	1	8	-1	1	2.631	-6.8644	-8.9616	3.9444	5.442	-1.2025	0.0976	-8.3977	-12.6538	-1.7273	-2.8078	-7.1723	-4.7031	-2.0777	0.3973	-5.5167	-8.2336	-9.6276	2.5479	-6.0492	0.2784	0.333	0.333	0.333	0.333	0.333	0.333	0.333	0.333	0.333	0.333	0.333	0.333	0.333	0.333	0.333	0.333	0.333	0.333	0.333	6.327	1.6387	4.2812	1	129	0.967364002058156	0	1
"130"	1	64	2	-4	-7.38	0	7	-1	1	2.253	-8.1451	-3.5638	-5.267	-8.3211	-10.4774	-5.6867	-3.6597	-12.9975	-1.6505	-1.6564	-11.9958	-20.9337	-13.138	-7.0238	-4.8898	-1.0527	-3.0994	-8.7126	-11.0554	-6.1056	0.3537	0.5274	0.2277	0.2673	0.3044	0.381	0.2552	0.37	0.4796	0.4016	0.3004	0.2482	0.2036	0.3985	0.4506	0.3954	0.2475	0.2905	0.2213	6.3238	1.5158	3.7702	1	130	0.812262661450107	0	1
"131"	1	9	2	-2	-3.69	0	11	-1	1	3.552	-3.6567	-3.2915	-0.9138	-2.9902	-2.8461	-9.8981	-7.4244	1.9892	-1.7454	-2.7522	-7.6411	3.9944	-2.9766	-4.9709	-12.9996	-3.9976	-7.4182	1.912	-10.9039	6.5559	0.4151	0.4845	0.3116	0.2122	0.3774	0.4502	0.3955	0.2938	0.2325	0.269	0.2114	0.4765	0.3201	0.2447	0.3674	0.4373	0.3601	0.254	0.2085	6.3217	1.6491	5.2032	1	131	1.26751082512992	0	1
"132"	1	43	2	-4	-7.38	1	8	-1	1	2.531	-2.8715	-3.4139	-9.2601	-8.7317	-11.8438	-13.6128	-0.9136	-16.153	-14.0296	-12.194	-3.8295	-4.1639	1.5147	-12.1187	-2.223	-4.8545	-5.9654	-12.277	-5.4509	-4.8814	0.333	0.333	0.333	0.333	0.333	0.333	0.333	0.333	0.333	0.333	0.333	0.333	0.333	0.333	0.333	0.333	0.333	0.333	0.333	6.327	1.4395	3.9817	1	132	0.928614481562987	0	1
"133"	1	10	2	-1	-1.845	0	14	-1	1	4.491	1.1096	-9.1653	4.6553	3.0494	4.8165	-6.811	-6.2494	-1.3689	-4.9482	-4.6817	1.3142	10.2621	-0.6597	-6.1554	-0.0012	-1.6282	-2.1519	-2.7124	-6.8681	-8.3104	0.3937	0.2713	0.2156	0.5044	0.2812	0.3168	0.2327	0.3999	0.2194	0.4116	0.3641	0.237	0.4555	0.3591	0.4059	0.366	0.2579	0.2117	0.4281	6.3319	1.4266	5.9251	1	133	1.5020753941056	0	1
"134"	1	44	2	-2	-3.69	1	8	-1	1	2.581	-0.4356	0.1435	-0.4621	-1.4569	-6.793	-7.4191	-6.4513	-4.4337	-0.6265	-9.7085	-15.6167	-0.5769	-5.7998	-0.3314	-10.8168	5.6345	-5.3593	-4.5823	2.0294	-0.1404	0.333	0.333	0.333	0.333	0.333	0.333	0.333	0.333	0.333	0.333	0.333	0.333	0.333	0.333	0.333	0.333	0.333	0.333	0.333	6.327	1.7152	4.2982	1	134	0.948176920736477	0	1
"135"	1	7	2	4	7.38	1	7	1	1	2.174	10.8441	8.0934	10.2559	10.2333	7.832	0.7113	-2.0012	12.95	8.5196	1.9927	4.4146	1.4321	13.0445	9.1706	14.1286	14.4845	10.911	4.8436	-0.8421	5.6835	0.333	0.333	0.333	0.333	0.333	0.333	0.333	0.333	0.333	0.333	0.333	0.333	0.333	0.333	0.333	0.333	0.333	0.333	0.333	6.327	1.4482	3.6414	1	135	0.776568788699018	1	0
"136"	1	31	2	-1	-1.845	1	7	-1	1	2.31	-0.8099	-5.5181	-4.1648	1.4942	-2.2904	-3.8685	4.0424	4.6166	-4.2398	-4.1576	-1.6131	-8.0727	-7.4655	-2.4854	6.0826	2.8991	-2.3805	6.6314	-2.4013	-13.2909	0.333	0.333	0.333	0.333	0.333	0.333	0.333	0.333	0.333	0.333	0.333	0.333	0.333	0.333	0.333	0.333	0.333	0.333	0.333	6.327	1.4435	3.7607	1	136	0.837247524533702	0	1
"137"	1	35	2	4	7.38	1	6	1	1	1.986	12.2083	8.8801	-2.3896	11.6656	6.0804	8.3488	5.4954	1.6591	9.8285	11.8283	3.5713	6.4098	5.6804	9.9491	9.8	19.8773	-0.6388	5.0947	5.9805	9.6395	0.333	0.333	0.333	0.333	0.333	0.333	0.333	0.333	0.333	0.333	0.333	0.333	0.333	0.333	0.333	0.333	0.333	0.333	0.333	6.327	1.6819	3.6867	1	137	0.686122565622981	1	0
"138"	1	19	2	1	1.845	1	8	-1	0	2.525	-1.3749	6.4467	2.8989	7.6291	1.3947	-1.5288	2.4107	4.7848	-10.0133	-5.2969	5.9759	6.0644	2.3282	6.034	0.4985	-0.2572	-5.249	0.7319	11.0722	2.9482	0.333	0.333	0.333	0.333	0.333	0.333	0.333	0.333	0.333	0.333	0.333	0.333	0.333	0.333	0.333	0.333	0.333	0.333	0.333	6.327	1.4243	3.9588	1	138	0.926241062727323	0	1
"139"	1	58	2	-2	-3.69	1	9	1	0	2.809	-4.94	-4.0139	3.3488	-8.9626	-4.4041	-7.9956	-0.0415	0.3113	-8.1581	-3.652	-4.7868	3.0834	-2.8134	-12.82	6.0886	2.9129	-7.8295	-8.8008	-5.2937	-4.3668	0.333	0.333	0.333	0.333	0.333	0.333	0.333	0.333	0.333	0.333	0.333	0.333	0.333	0.333	0.333	0.333	0.333	0.333	0.333	6.327	1.7078	4.5263	1	139	1.03282854812211	1	0
"140"	1	52	2	-1	-1.845	0	7	-1	1	1.892	1.7894	-2.9796	3.3533	-11.5698	-9.093	1.0576	4.5786	1.2622	-3.8983	-10.1799	-2.1483	-4.1914	-3.1595	-1.2476	-5.3493	-2.1282	4.7419	4.1347	-4.8229	3.6411	0.2632	0.2124	0.2922	0.2669	0.3359	0.3996	0.2955	0.4145	0.4488	0.3793	0.2817	0.4676	0.2144	0.5172	0.2927	0.2375	0.3318	0.2564	0.4184	6.3261	1.5376	3.443	1	140	0.637634470629686	0	1
"141"	1	33	3	1	1.845	1	8	1	1	2.6	-1.9874	2.1246	0.7603	5.1919	4.1753	-9.816	3.3826	-1.1135	9.5473	6.8749	12.4481	-0.2011	6.5316	-1.0783	0.1442	5.5465	-1.7384	-0.017	-2.6417	-0.9521	0.333	0.333	0.333	0.333	0.333	0.333	0.333	0.333	0.333	0.333	0.333	0.333	0.333	0.333	0.333	0.333	0.333	0.333	0.333	6.327	1.4341	4.0342	1	141	0.955511445027436	1	0
"142"	1	42	3	4	7.38	0	7	1	1	1.995	4.716	9.696	9.0973	9.3379	1.273	3.4988	-1.9154	12.4591	10.0615	16.5383	-2.6268	4.4617	7.4453	10.7369	12.1786	7.4107	13.4313	9.2629	1.8931	6.835	0.3057	0.2257	0.3054	0.4272	0.3673	0.2542	0.4357	0.2659	0.4554	0.3233	0.2894	0.326	0.2295	0.3526	0.5103	0.3817	0.3006	0.2067	0.3629	6.3256	1.4624	3.4625	1	142	0.690644050341827	1	0
"143"	1	54	3	1	1.845	0	8	1	1	2.381	3.8956	0.4111	0.7848	-1.2899	3.8184	12.2292	-5.7261	-3.0129	10.4673	-1.1191	-1.584	8.3722	2.6495	3.1694	-3.7013	2.4089	-1.6727	2.1029	8.909	-4.2226	0.374	0.2432	0.3168	0.211	0.3067	0.2135	0.4998	0.4645	0.2169	0.3868	0.2556	0.4877	0.4456	0.338	0.29	0.3742	0.2835	0.4135	0.2074	6.3288	1.4286	3.8317	1	143	0.867520567504726	1	0
"144"	1	36	3	-4	-7.38	0	4	-1	1	1.417	-10.6125	-3.4445	-14.3271	-5.8545	-4.2245	-17.448	-5.6822	-2.9178	-9.6849	-7.449	-10.9706	-3.4585	-1.7703	-3.4292	-13.0098	-4.4413	-0.5189	-2.9615	-11.5469	-15.1091	0.2295	0.3039	0.4219	0.5039	0.3887	0.2124	0.4358	0.2759	0.3515	0.2094	0.2661	0.4551	0.2012	0.3264	0.5217	0.2076	0.3576	0.2928	0.366	6.3274	1.4744	2.9015	1	144	0.348541960708543	0	1
"145"	1	51	3	-2	-3.69	0	11	-1	1	3.646	-4.1204	-12.7093	-3.3579	-1.95	0.5466	-9.4965	-1.4978	-9.2194	-2.5741	-2.3555	6.7282	-6.6853	1.1842	1.0229	1.8835	-3.4229	-8.1612	-4.1794	-13.8227	-2.4328	0.2021	0.5178	0.2384	0.3085	0.4462	0.2014	0.3178	0.483	0.2856	0.4966	0.444	0.241	0.3316	0.209	0.2377	0.2905	0.2596	0.4364	0.3699	6.317	1.5844	5.2465	1	145	1.29363067625647	0	1
"146"	1	44	3	-2	-3.69	1	6	-1	1	1.703	-7.9014	-0.214	-2.1044	0.4513	-0.0419	-6.2316	-0.9491	-13.157	-8.7564	-14.0079	-4.5327	-4.9365	-4.8486	3.6258	-0.2556	4.5833	-6.0198	-5.9172	-1.1551	-0.4286	0.333	0.333	0.333	0.333	0.333	0.333	0.333	0.333	0.333	0.333	0.333	0.333	0.333	0.333	0.333	0.333	0.333	0.333	0.333	6.327	1.7181	3.4374	1	146	0.532391401680551	0	1
"147"	1	27	3	2	3.69	0	4	1	1	1.268	6.6732	9.2639	1.9656	3.2377	2.1771	13.1525	3.7882	-3.15	5.0774	8.8999	0.9835	5.5032	-5.4816	1.1224	-3.0845	1.9752	2.7474	0.6708	4.7901	14.5715	0.2973	0.3776	0.3236	0.3779	0.3426	0.4422	0.223	0.3046	0.5116	0.2242	0.3735	0.4514	0.3109	0.2358	0.2045	0.2674	0.216	0.3632	0.4822	6.3295	1.6462	2.9187	1	147	0.237440856015034	1	0
"148"	1	55	3	2	3.69	0	7	1	1	2.208	2.2464	2.3603	2.719	4.1974	-8.3994	9.4672	2.5303	-0.6593	5.5334	4.9482	-4.6055	7.4436	2.8572	8.9997	0.0087	4.9551	5.0763	0.1405	7.9045	14.641	0.3796	0.2697	0.5028	0.2644	0.2246	0.2714	0.5101	0.4007	0.3209	0.2376	0.3264	0.4292	0.2266	0.2929	0.3357	0.2458	0.3358	0.5115	0.2389	6.3246	1.5507	3.7749	1	148	0.792087128414849	1	0
"149"	1	21	3	4	7.38	1	5	1	1	1.347	8.1568	3.7694	0.9283	13.9808	8.5795	1.4726	3.3581	11.2692	6.6454	7.6176	8.1176	5.1038	7.5516	2.4563	3.4275	16.5744	3.2346	2.7562	18.1991	13.5281	0.333	0.333	0.333	0.333	0.333	0.333	0.333	0.333	0.333	0.333	0.333	0.333	0.333	0.333	0.333	0.333	0.333	0.333	0.333	6.327	1.6955	3.0475	1	149	0.297879897428227	1	0
"150"	1	15	3	-4	-7.38	1	5	-1	1	1.606	-12.0911	-6.0534	-6.0966	-4.9377	-9.5419	-10.6467	-12.7606	-16.7075	1.2197	-12.9968	-4.4855	-2.2326	-9.3846	-14.1993	-8.1593	-1.8102	-3.0502	-9.3904	-1.8503	-1.1649	0.333	0.333	0.333	0.333	0.333	0.333	0.333	0.333	0.333	0.333	0.333	0.333	0.333	0.333	0.333	0.333	0.333	0.333	0.333	6.327	1.4811	3.0901	1	150	0.47374661552457	0	1
"151"	1	9	3	-2	-3.69	0	8	-1	1	2.35	-2.6725	-0.6167	-10.6421	-3.2674	-7.9434	-10.5879	-4.6603	-3.335	6.4676	-5.4147	-3.2646	-4.1078	1.0789	-5.4979	-6.7174	3.425	-8.7447	-9.1041	-3.6617	6.5669	0.3503	0.2029	0.3559	0.4319	0.2267	0.3578	0.391	0.4821	0.2216	0.3114	0.2132	0.4733	0.2771	0.223	0.4912	0.2235	0.4386	0.3413	0.3141	6.3269	1.4636	3.817	1	151	0.854415328156068	0	1
"152"	1	61	3	1	1.845	1	6	1	1	1.833	-1.895	0.8957	5.9611	6.041	0.2926	2.0639	-4.0945	-4.3259	3.3799	5.647	-2.1177	-7.9879	-3.4554	4.6485	11.9911	3.2393	4.6569	7.3544	-1.531	7.0651	0.333	0.333	0.333	0.333	0.333	0.333	0.333	0.333	0.333	0.333	0.333	0.333	0.333	0.333	0.333	0.333	0.333	0.333	0.333	6.327	1.4956	3.3336	1	152	0.605953968857568	1	0
"153"	1	53	3	0	0	0	6	-1	1	2.162	-1.1645	-3.5361	-9.1671	1.0047	-5.3803	6.5578	-0.5192	5.8288	-0.0365	-3.4595	7.4215	-1.6074	4.9986	6.7018	8.5495	-1.7397	-1.9956	-4.7307	-4.0494	-1.999	0.3808	0.2261	0.2746	0.4819	0.3807	0.4917	0.2102	0.263	0.3291	0.5317	0.4518	0.3414	0.2297	0.29	0.2588	0.3305	0.222	0.2505	0.3764	6.321	1.6877	3.8458	1	153	0.771033719217016	0	1
"154"	1	48	3	2	3.69	1	6	1	1	1.825	8.3231	10.6523	-0.7005	0.1895	-0.0765	2.4358	-4.6147	1.3635	-1.4429	10.747	2.1006	4.354	10.5	1.7107	7.3056	7.2246	-3.7903	12.4594	1.1777	2.28	0.333	0.333	0.333	0.333	0.333	0.333	0.333	0.333	0.333	0.333	0.333	0.333	0.333	0.333	0.333	0.333	0.333	0.333	0.333	6.327	1.6157	3.4422	1	154	0.601579987034455	1	0
"155"	1	59	3	-1	-1.845	1	5	-1	1	1.565	-2.1996	4.2893	-4.2275	-4.7239	-1.2684	0.0613	4.2438	-7.1672	1.5689	-3.1979	2.6312	4.1459	4.1997	-5.0156	-0.4398	-3.484	-11.0413	-12.6646	2.5545	-4.3224	0.333	0.333	0.333	0.333	0.333	0.333	0.333	0.333	0.333	0.333	0.333	0.333	0.333	0.333	0.333	0.333	0.333	0.333	0.333	6.327	1.5619	3.1324	1	155	0.447885823992117	0	1
"156"	1	17	3	-1	-1.845	1	12	-1	1	3.968	0.3332	-5.1337	4.0522	-1.5729	2.5719	-3.2164	-12.3941	-3.5468	-4.0036	-0.3071	8.7136	0.0215	-9.6833	-1.8633	4.5187	-6.9437	-1.3358	-2.4503	2.7639	-6.9623	0.333	0.333	0.333	0.333	0.333	0.333	0.333	0.333	0.333	0.333	0.333	0.333	0.333	0.333	0.333	0.333	0.333	0.333	0.333	6.327	1.419	5.4021	1	156	1.37826218942263	0	1
"157"	1	35	3	4	7.38	1	5	1	1	1.527	9.1522	10.2929	9.1876	10.7608	7.0913	6.2643	6.0219	9.9547	0.1856	2.3988	0.9267	13.3976	7.4987	12.9712	8.4807	10.7409	-3.4869	1.3482	10.481	15.4161	0.333	0.333	0.333	0.333	0.333	0.333	0.333	0.333	0.333	0.333	0.333	0.333	0.333	0.333	0.333	0.333	0.333	0.333	0.333	6.327	1.6465	3.1944	1	157	0.423305026236495	1	0
"158"	1	67	3	0	0	0	9	-1	0	2.718	-3.869	-11.4606	-0.3518	1.2317	0.0138	5.7177	-6.1632	0.2791	-0.0636	6.5454	2.627	0.5207	2.0066	-5.2977	-5.3253	6.6454	-6.3768	6.8611	5.3112	-0.429	0.262	0.2198	0.2819	0.4263	0.4827	0.3374	0.2004	0.4637	0.3773	0.2707	0.403	0.2905	0.3408	0.5026	0.2237	0.2606	0.3119	0.3944	0.2779	6.3278	1.5445	4.2684	1	158	0.999896315728952	0	1
"159"	1	63	3	4	7.38	1	5	1	1	1.582	11.7977	8.4787	13.1462	10.4766	2.1464	6.8339	7.6562	6.2185	17.33	-3.8021	4.7291	15.9607	1.4241	6.9996	4.3751	10.2828	4.7545	8.667	2.8538	6.8257	0.333	0.333	0.333	0.333	0.333	0.333	0.333	0.333	0.333	0.333	0.333	0.333	0.333	0.333	0.333	0.333	0.333	0.333	0.333	6.327	1.5702	3.1661	1	159	0.458689869345462	1	0
"160"	1	29	3	-4	-7.38	1	7	-1	1	2.045	-4.524	-11.979	-3.5882	-14.3145	-6.8025	-9.1052	-15.8839	3.7377	-12.6046	-2.833	-7.4345	-2.3807	-8.4124	-4.7246	-0.939	-7.3118	-8.028	-14.2818	-8.4359	-9.367	0.333	0.333	0.333	0.333	0.333	0.333	0.333	0.333	0.333	0.333	0.333	0.333	0.333	0.333	0.333	0.333	0.333	0.333	0.333	6.327	1.7267	3.7795	1	160	0.715397789494765	0	1
"161"	1	70	3	4	7.38	0	9	1	1	2.816	7.8009	4.7415	6.3452	14.4622	2.8599	14.7903	10.0489	6.4746	20.83	1.4794	3.0353	4.3222	4.1064	4.6097	5.4472	2.9382	1.245	11.2559	9.2188	10.1313	0.3885	0.3411	0.302	0.2283	0.4397	0.2625	0.4917	0.2606	0.2321	0.4198	0.2378	0.3243	0.4905	0.361	0.3059	0.3458	0.3129	0.3566	0.2246	6.3257	1.7182	4.5503	1	161	1.0353174382958	1	0
"162"	1	1	3	-4	-7.38	1	7	-1	1	2.179	-7.192	-1.2936	-10.5557	-17.4416	-10.493	-11.5844	-5.358	-8.7649	3.3175	-13.2286	-12.4673	-4.0638	-1.9894	-0.3778	-8.1264	-6.7072	-4.9789	-4.1057	-10.1544	-11.6706	0.333	0.333	0.333	0.333	0.333	0.333	0.333	0.333	0.333	0.333	0.333	0.333	0.333	0.333	0.333	0.333	0.333	0.333	0.333	6.327	1.7102	3.8967	1	162	0.778866055962483	0	1
"163"	1	6	3	2	3.69	1	6	1	1	1.74	0.4442	12.5162	4.4979	-8.407	5.2899	7.3091	6.5743	-1.8296	2.7489	1.1164	-1.8687	2.5263	11.7224	8.6069	1.4881	0.8766	4.7463	10.3593	4.6274	1.1076	0.333	0.333	0.333	0.333	0.333	0.333	0.333	0.333	0.333	0.333	0.333	0.333	0.333	0.333	0.333	0.333	0.333	0.333	0.333	6.327	1.467	3.2075	1	163	0.553885113226438	1	0
"164"	1	65	3	-2	-3.69	0	9	-1	1	2.928	-8.1767	-6.1875	-10.5089	-0.7882	2.2165	-5.5532	-1.1532	1.1306	1.2788	3.7513	0.0239	1.4875	-11.0814	-8.7266	-0.279	-8.5539	-2.005	-13.6604	-2.1918	-5.2319	0.4035	0.2126	0.5116	0.2142	0.4512	0.5042	0.3795	0.2066	0.4016	0.3661	0.5025	0.244	0.2951	0.2393	0.2015	0.2924	0.2187	0.2673	0.4092	6.3211	1.7099	4.6455	1	164	1.07431959609907	0	1
"165"	1	46	3	0	0	1	7	1	0	2.056	-0.1936	1.862	-4.7533	4.2147	8.0715	-1.6246	-1.9668	-5.5804	-0.2872	2.0155	-1.1249	4.3243	4.9729	-4.5364	4.4937	-11.8793	-5.8836	-1.795	1.2253	7.8063	0.333	0.333	0.333	0.333	0.333	0.333	0.333	0.333	0.333	0.333	0.333	0.333	0.333	0.333	0.333	0.333	0.333	0.333	0.333	6.327	1.5609	3.6234	1	165	0.720762347592919	1	0
"166"	1	5	3	1	1.845	1	3	1	1	0.978	2.5897	5.5597	1.2708	1.5078	3.4439	-0.418	7.0916	4.1519	-0.3012	4.6548	6.7329	4.2815	-14.4463	6.7144	0.9251	-0.6383	-4.6206	2.5269	6.3303	0.2233	0.333	0.333	0.333	0.333	0.333	0.333	0.333	0.333	0.333	0.333	0.333	0.333	0.333	0.333	0.333	0.333	0.333	0.333	0.333	6.327	1.414	2.3956	1	166	-0.0222456089473197	1	0
"167"	1	69	3	2	3.69	0	8	1	1	2.313	4.2622	4.0945	-3.4772	0.1857	1.6401	8.5609	10.7899	9.396	3.237	-4.0654	2.4557	7.8176	9.9584	2.9963	-2.3242	5.8098	10.977	5.0635	1.0057	-4.1422	0.2791	0.204	0.5158	0.3388	0.2848	0.2108	0.4238	0.2414	0.4101	0.2057	0.3057	0.3995	0.2349	0.4791	0.4147	0.2984	0.4496	0.2215	0.4006	6.3184	1.5994	3.9142	1	167	0.838545383249302	1	0
"168"	1	28	3	4	7.38	0	7	1	1	1.658	6.5883	3.0785	11.4538	9.2391	13.1095	11.2926	3.7252	8.6347	11.3654	6.748	10.2451	11.1045	5.2408	9.126	0.2336	0.024	2.2573	18.1987	-1.0266	8.3163	0.2699	0.3657	0.2754	0.2108	0.2496	0.2152	0.278	0.4714	0.4278	0.2697	0.3513	0.4892	0.252	0.3108	0.2024	0.4846	0.4515	0.5284	0.219	6.3228	1.6072	3.2591	1	168	0.505612056713103	1	0
"169"	1	24	3	-1	-1.845	0	6	-1	1	1.835	-3.5748	-8.1761	-6.3269	-1.6069	0.3872	6.1483	5.856	-4.7543	-2.3555	-3.985	6.08	-2.2855	-7.1512	-6.4509	-2.9045	-6.8377	-4.843	5.8637	-6.3466	5.0174	0.4095	0.3605	0.4438	0.2292	0.3234	0.2676	0.3251	0.3688	0.3238	0.3772	0.3013	0.2351	0.3668	0.302	0.5145	0.2673	0.211	0.3982	0.2934	6.3184	1.566	3.4194	1	169	0.607044481506534	0	1
"170"	1	40	3	1	1.845	0	14	-1	0	4.042	-0.414	2.2299	10.6293	-4.4726	1.3145	1.0898	5.0786	3.9133	5.1351	0.9671	2.2552	-5.8758	-4.2592	-3.9015	-4.414	11.709	1.3329	0.2473	9.1945	6.2084	0.2645	0.2257	0.2772	0.4481	0.2796	0.216	0.3517	0.4367	0.2763	0.3269	0.2071	0.2602	0.3541	0.5156	0.3875	0.4251	0.4789	0.3262	0.2617	6.319	1.6737	5.7259	1	170	1.39673961898143	0	1
"171"	1	12	3	1	1.845	0	5	1	1	1.653	1.0938	1.3849	6.5239	3.2116	-5.17	16.0582	-0.2339	5.4091	5.4723	-8.358	0.2022	1.4699	3.6616	3.1288	3.0447	-2.7283	2.0685	1.0122	-3.0769	2.892	0.4081	0.2939	0.3657	0.2757	0.3158	0.4878	0.2546	0.2895	0.3533	0.3997	0.3364	0.4498	0.311	0.266	0.3145	0.4005	0.2215	0.3555	0.2373	6.3365	1.656	3.3208	1	171	0.502591818838887	1	0
"172"	1	4	3	0	0	1	13	-1	1	4.012	-2.0614	-2.7449	-0.618	1.7246	-0.0378	-8.1558	-4.5396	-3.861	-1.0594	5.7763	-2.3476	5.283	0.0212	-9.0719	-0.1576	10.2304	6.5135	-3.846	6.3941	3.8122	0.333	0.333	0.333	0.333	0.333	0.333	0.333	0.333	0.333	0.333	0.333	0.333	0.333	0.333	0.333	0.333	0.333	0.333	0.333	6.327	1.4464	5.4623	1	172	1.38928987009969	0	1
"173"	1	23	3	-2	-3.69	0	3	-1	1	1.097	-5.6321	-6.8593	-7.8002	-11.7218	-0.022	4.9876	-8.3058	0.2049	4.7207	-2.6623	-0.6002	0.0666	-1.8677	-1.5439	-0.2488	-1.3526	-8.6419	-14.2264	-3.8415	-7.845	0.3381	0.2903	0.491	0.3035	0.3348	0.2479	0.2839	0.3633	0.5298	0.2451	0.3133	0.4624	0.3022	0.358	0.4495	0.2315	0.308	0.2014	0.2724	6.3266	1.5205	2.6308	1	173	0.0925791812930932	0	1
"174"	1	30	3	-2	-3.69	1	4	-1	1	1.262	-5.7122	-9.1979	-2.7703	-9.2354	4.5852	2.0189	-6.06	-3.1293	-1.2769	-11.7969	4.9847	-2.9195	-9.619	-4.4802	0.7261	2.5848	-4.935	-6.8878	-8.4014	-0.6713	0.333	0.333	0.333	0.333	0.333	0.333	0.333	0.333	0.333	0.333	0.333	0.333	0.333	0.333	0.333	0.333	0.333	0.333	0.333	6.327	1.646	2.9129	1	174	0.232697764119021	0	1
"175"	1	58	3	-2	-3.69	1	8	-1	1	2.426	-0.1269	-5.3909	-4.5017	-1.1819	0.4116	-7.0517	-1.8857	-10.0794	-6.5555	2.7849	-10.4346	-3.8622	2.5546	-4.0076	7.672	-10.5486	-8.0663	-5.8882	-6.9793	0.505	0.333	0.333	0.333	0.333	0.333	0.333	0.333	0.333	0.333	0.333	0.333	0.333	0.333	0.333	0.333	0.333	0.333	0.333	0.333	6.327	1.5574	3.993	1	175	0.886243810521858	0	1
"176"	1	38	3	-1	-1.845	0	13	1	0	3.832	-4.2102	-3.5969	-5.1211	10.3358	4.2122	-2.9588	-3.3314	2.1974	4.5625	5.9332	-2.389	-5.8335	-4.4634	-1.3254	-7.5972	-5.5637	-1.2149	-7.5677	0.7742	-8.0099	0.2946	0.2103	0.2392	0.51	0.3339	0.2216	0.2503	0.4039	0.4974	0.2481	0.3387	0.2734	0.3255	0.2598	0.4648	0.4009	0.2053	0.3593	0.4972	6.3344	1.5267	5.3663	1	176	1.34338686010861	1	0
"177"	1	57	3	-4	-7.38	1	5	-1	1	1.398	-5.5936	-1.1641	-2.424	-4.645	-5.546	-7.8007	-10.9724	-10.0256	-4.0672	-12.0435	-2.3768	-3.2106	-11.9066	-10.9225	-12.7147	-16.798	-7.3044	-7.354	2.8603	-13.3057	0.333	0.333	0.333	0.333	0.333	0.333	0.333	0.333	0.333	0.333	0.333	0.333	0.333	0.333	0.333	0.333	0.333	0.333	0.333	6.327	1.6543	3.0488	1	177	0.335042643811618	0	1
"178"	1	10	3	-1	-1.845	0	8	-1	1	2.623	-1.0774	-2.7575	-0.5668	-2.8136	-5.8909	3.4368	1.5028	-5.2509	-1.0195	8.1726	-9.4495	-6.8394	1.94	-2.3319	-2.6959	0.9915	-12.356	6.8417	-3.4587	-1.5658	0.2806	0.361	0.2942	0.3502	0.3921	0.2007	0.3768	0.4171	0.2432	0.3519	0.2042	0.27	0.409	0.2072	0.3763	0.5023	0.468	0.2942	0.3204	6.3195	1.6723	4.2904	1	178	0.964318700884737	0	1
"179"	1	50	3	-4	-7.38	0	6	-1	1	2.065	-10.6894	-4.3324	-5.6253	-8.4438	-11.7359	-4.5181	-5.2231	-17.1562	-12.1921	-0.0015	-0.8498	-2.1132	-11.1415	-6.4608	-0.8714	-12.4155	-3.7735	-6.9157	-16.2609	-5.1984	0.2287	0.4147	0.3688	0.2486	0.3793	0.4675	0.2143	0.4739	0.3733	0.2838	0.3998	0.3518	0.2557	0.4727	0.2881	0.2307	0.264	0.3885	0.2253	6.3296	1.5468	3.6154	1	179	0.725130226412996	0	1
"180"	1	16	3	-2	-3.69	1	9	1	0	2.933	-0.8483	-6.9942	2.6093	-10.5949	0.7832	-4.6896	-1.4233	3.0125	-2.5185	-1.1395	-5.4302	-7.1403	-0.5194	-1.2683	-7.8914	-13.786	-6.1796	-12.9137	-1.627	3.2192	0.333	0.333	0.333	0.333	0.333	0.333	0.333	0.333	0.333	0.333	0.333	0.333	0.333	0.333	0.333	0.333	0.333	0.333	0.333	6.327	1.4097	4.367	1	180	1.07602578999531	1	0
"181"	1	41	3	2	3.69	0	5	1	1	1.217	3.1423	8.8161	9.0562	5.7757	-0.1486	-3.0018	-2.4846	7.1098	-5.0891	0.6068	1.1418	2.7958	1.7182	8.565	12.1882	-0.2775	2.4472	2.1931	8.1523	11.6625	0.2151	0.4012	0.3719	0.2196	0.4405	0.2747	0.4305	0.4006	0.2175	0.3146	0.3598	0.244	0.3927	0.4732	0.3775	0.2512	0.2077	0.3071	0.4292	6.3287	1.5854	2.8181	1	181	0.19638881400539	1	0
"182"	1	56	3	4	7.38	0	5	1	1	1.62	5.9717	5.4297	18.217	10.368	10.6099	3.0487	-3.451	8.9157	11.8513	5.7853	5.3249	2.0234	9.3091	13.8792	0.5817	10.5888	8.4288	8.9417	1.0986	9.6011	0.3387	0.2132	0.4887	0.2943	0.4436	0.3328	0.5292	0.3201	0.4027	0.2637	0.237	0.2792	0.4158	0.2889	0.2016	0.2706	0.2355	0.2875	0.4862	6.3294	1.5737	3.2045	1	182	0.482426149244293	1	0
"183"	1	37	3	-2	-3.69	0	14	-1	1	4.79	-0.0268	-4.2356	4.8608	-4.0218	-8.1615	2.0282	-7.1872	5.7504	-8.9628	-4.0931	-6.2403	-4.656	-8.3377	-6.5751	-7.1329	-5.3154	-3.092	4.8377	-3.1552	-11.7144	0.3787	0.2535	0.3374	0.5065	0.3966	0.5107	0.3368	0.2169	0.3823	0.3389	0.3905	0.2054	0.2857	0.2543	0.2266	0.5021	0.3514	0.2152	0.2474	6.337	1.6123	6.407	1	183	1.56653041142282	0	1
"184"	1	22	3	-4	-7.38	0	6	-1	1	1.79	-4.3589	-3.6592	-7.3972	1.6837	-7.7218	-21.247	-3.9347	-4.1629	-5.0825	-3.8744	-8.6139	-9.9218	-8.5597	-9.9264	0.9524	-10.6326	-12.7758	-6.1176	-12.6949	-8.0407	0.3953	0.2248	0.3645	0.2304	0.3924	0.2794	0.4171	0.271	0.4956	0.3325	0.236	0.4737	0.2001	0.3155	0.3583	0.3892	0.322	0.408	0.2252	6.3311	1.5522	3.3573	1	184	0.582215619852664	0	1
"185"	1	47	3	1	1.845	1	8	1	1	2.479	3.5753	6.4263	2.9995	-6.229	9.3473	-3.9964	-3.1783	-0.6475	2.6564	2.4814	3.6927	5.3023	-9.0142	5.413	3.1189	7.8501	-4.0782	7.2126	2.1502	1.391	0.333	0.333	0.333	0.333	0.333	0.333	0.333	0.333	0.333	0.333	0.333	0.333	0.333	0.333	0.333	0.333	0.333	0.333	0.333	6.327	1.4149	3.8968	1	185	0.907855253053053	1	0
"186"	1	68	3	1	1.845	0	9	1	1	2.518	0.4229	5.3853	-2.1388	-1.1358	4.3572	6.1646	10.9218	11.4363	0.8407	8.0507	1.6066	-2.2353	0.1437	1.8063	-4.7979	-0.8357	6.4868	2.8055	-4.5464	-6.2691	0.38	0.2209	0.2871	0.2463	0.2907	0.3936	0.2436	0.3659	0.3072	0.2711	0.3939	0.4627	0.5108	0.4626	0.3503	0.2494	0.4309	0.2068	0.2518	6.3258	1.4196	3.9521	1	186	0.923464935622155	1	0
"187"	1	45	3	-1	-1.845	1	8	-1	1	2.581	-1.6409	0	-7.0388	-3.4033	-4.4765	-8.5387	-4.5238	-12.0634	0.4915	-1.1221	4.9872	5.3372	-3.5545	3.0285	7.9394	-4.3659	1.6361	-1.3534	-0.7756	-8.2127	0.333	0.333	0.333	0.333	0.333	0.333	0.333	0.333	0.333	0.333	0.333	0.333	0.333	0.333	0.333	0.333	0.333	0.333	0.333	6.327	1.4452	4.0317	1	187	0.948176920736477	0	1
"188"	1	32	3	0	0	1	8	1	1	2.523	0.6955	-0.4126	2.7486	-1.1583	-7.903	0.6328	6.3798	-9.8853	9.4873	-3.4034	-7.9243	1.9511	-0.3376	-1.7849	2.6592	4.0507	3.6062	-3.4753	6.4977	-2.9193	0.333	0.333	0.333	0.333	0.333	0.333	0.333	0.333	0.333	0.333	0.333	0.333	0.333	0.333	0.333	0.333	0.333	0.333	0.333	6.327	1.709	4.2408	1	188	0.925448669658921	1	0
"189"	1	62	3	2	3.69	1	4	1	1	1.317	7.4159	0.8989	8.0126	6.391	5.1308	2.7988	8.5441	-3.5969	2.9441	3.6978	3.9927	-3.1983	8.276	2.6268	3.4706	4.0685	1.5377	4.1209	15.6053	-7.7157	0.333	0.333	0.333	0.333	0.333	0.333	0.333	0.333	0.333	0.333	0.333	0.333	0.333	0.333	0.333	0.333	0.333	0.333	0.333	6.327	1.4126	2.7345	1	189	0.275356422761144	1	0
"190"	1	66	3	-1	-1.845	0	12	1	0	3.952	-3.6064	-8.4943	-0.9046	-7.4508	-5.0791	0.657	-9.99	-2.5653	-3.0108	6.2465	-5.8867	5.1885	-5.4841	2.5809	2.4962	3.1045	2.0273	-4.1795	-8.1572	5.7819	0.2051	0.5075	0.318	0.386	0.2619	0.2242	0.2733	0.3059	0.3759	0.5056	0.2466	0.4021	0.4538	0.3857	0.3133	0.2473	0.4264	0.2284	0.2625	6.3296	1.4777	5.4364	1	190	1.37422177988562	1	0
"191"	1	25	3	0	0	0	10	1	0	3.024	-2.069	-5.864	1.1473	4.134	-6.3258	-1.8436	-2.1478	-2.003	5.023	-4.4877	-11.5413	5.7669	-0.1083	0.2114	1.1596	4.4818	7.2536	8.0991	-1.4112	0.0077	0.24	0.2734	0.416	0.3901	0.2671	0.2145	0.2595	0.2887	0.4543	0.2994	0.4686	0.2891	0.3227	0.5124	0.4313	0.3072	0.2635	0.207	0.4138	6.3185	1.5647	4.5916	1	191	1.10658045831729	1	0
"192"	1	14	3	4	7.38	0	11	1	1	3.388	7.2225	-1.8874	0.2786	3.1641	13.2178	12.486	3.2354	5.2721	-0.0525	10.936	7.881	4.2208	12.3936	9.2345	9.4696	9.059	12.948	2.8433	11.2795	14.6359	0.3184	0.3775	0.315	0.4317	0.2054	0.4208	0.3754	0.3387	0.2292	0.2756	0.2099	0.4483	0.3461	0.374	0.2839	0.3987	0.3562	0.2303	0.3897	6.3247	1.728	5.1385	1	192	1.22023977678981	1	0
"193"	1	2	3	-2	-3.69	1	5	-1	1	1.485	-4.7561	-7.2804	-8.5075	-7.6322	0.2085	-9.0174	-6.4625	-3.4837	9.0338	-11.4164	1.1344	-6.1449	-5.3428	-4.3084	-2.8749	5.4306	-3.1917	-4.1238	-7.4133	1.6483	0.333	0.333	0.333	0.333	0.333	0.333	0.333	0.333	0.333	0.333	0.333	0.333	0.333	0.333	0.333	0.333	0.333	0.333	0.333	6.327	1.5046	3.002	1	193	0.395414772254663	0	1
"194"	1	52	3	-1	-1.845	0	7	-1	1	2.34	-0.5831	-7.311	-1.9619	-4.1758	6.2942	1.6643	-5.9174	-5.9294	-2.55	-1.9316	-11.0927	10.5467	-0.7018	-1.766	-0.1963	-1.669	4.9942	-3.3472	-3.6749	-7.1994	0.3316	0.262	0.4749	0.2175	0.4798	0.2494	0.3314	0.2194	0.389	0.2842	0.4562	0.2396	0.4504	0.2582	0.3212	0.3788	0.3023	0.4297	0.2521	6.3277	1.6501	4.0072	1	194	0.85015092936961	0	1
"195"	1	60	3	0	0	1	12	-1	0	3.915	1.6608	1.3456	-3.93	2.9007	3.4929	-6.5366	-3.8324	7.1136	-3.0985	-6.2932	0.9241	-3.4578	4.1348	-5.5351	10.2103	-0.1574	1.211	-4.9391	8.0391	-2.0622	0.333	0.333	0.333	0.333	0.333	0.333	0.333	0.333	0.333	0.333	0.333	0.333	0.333	0.333	0.333	0.333	0.333	0.333	0.333	6.327	1.5683	5.4988	1	195	1.36481532944277	0	1
"196"	1	11	3	0	0	0	9	1	1	2.736	1.2691	1.2057	4.303	-1.0926	1.9647	11.8823	-0.3103	7.078	-8.6637	5.1695	-0.8589	-6.6606	1.7205	-2.2189	-7.3239	-5.256	-2.9252	-2.0925	3.3592	-1.8232	0.2467	0.2864	0.2157	0.3868	0.4525	0.2318	0.3951	0.4423	0.2261	0.3796	0.3239	0.287	0.3898	0.2584	0.4761	0.5303	0.2119	0.2533	0.3336	6.3275	1.7079	4.4531	1	196	1.0064969997603	1	0
"197"	1	26	3	1	1.845	0	8	1	1	2.559	-2.4946	5.2882	-5.2842	1.9041	-1.4412	-3.8714	-1.6231	-0.2339	3.268	11.8189	4.7211	4.5079	10.939	5.2411	5.7341	2.2695	-6.8555	-1.0249	1.0431	4.6135	0.2456	0.4583	0.3924	0.2628	0.211	0.2506	0.3901	0.4428	0.2309	0.2585	0.3509	0.2661	0.3976	0.4695	0.2075	0.474	0.2806	0.4883	0.2465	6.324	1.5429	4.1094	1	197	0.939616557177652	1	0
"198"	1	39	3	0	0	0	10	1	1	3.093	-4.5555	-1.6907	2.364	0.5596	0.9212	9.0196	1.1526	3.7671	1.7999	-3.3466	-1.3114	-5.9646	5.4867	-2.6662	-3.2058	-6.64	-5.5601	1.2561	-1.9575	12.2938	0.2479	0.3426	0.4692	0.4066	0.4895	0.2936	0.2298	0.2792	0.3237	0.5147	0.3547	0.2168	0.3112	0.2401	0.3526	0.4755	0.2042	0.2362	0.346	6.334	1.4199	4.5268	1	198	1.12914149370293	1	0
"199"	1	20	3	2	3.69	1	9	1	1	2.977	1.0179	4.9908	-3.0504	2.8153	1.507	-0.0237	13.7835	3.358	8.7255	14.97	-0.3699	6.5821	-1.4244	-3.9281	6.725	-1.1165	2.4974	5.8666	7.2864	4.7287	0.333	0.333	0.333	0.333	0.333	0.333	0.333	0.333	0.333	0.333	0.333	0.333	0.333	0.333	0.333	0.333	0.333	0.333	0.333	6.327	1.538	4.5283	1	199	1.09091608203364	1	0
"200"	1	7	3	4	7.38	1	7	1	1	2.067	5.1918	9.4969	13.3746	3.6313	8.7991	7.3728	19.3092	-3.6601	9.6061	11.4533	10.095	6.8989	6.3436	3.2407	5.5215	5.4958	-0.4546	9.831	10.089	4.9175	0.333	0.333	0.333	0.333	0.333	0.333	0.333	0.333	0.333	0.333	0.333	0.333	0.333	0.333	0.333	0.333	0.333	0.333	0.333	6.327	1.7213	3.7847	1	200	0.726098280699631	1	0
"201"	1	31	3	-1	-1.845	1	9	-1	1	2.7	-0.1455	-3.8701	-2.8361	-1.3825	-3.644	-1.7393	-3.7576	-11.5042	-0.018	0.6805	1.4515	5.4852	0.836	5.2784	-0.0435	-15.2089	1.9914	1.8141	-7.5855	-2.4398	0.333	0.333	0.333	0.333	0.333	0.333	0.333	0.333	0.333	0.333	0.333	0.333	0.333	0.333	0.333	0.333	0.333	0.333	0.333	6.327	1.588	4.2839	1	201	0.993251773010283	0	1
"202"	1	13	3	2	3.69	0	9	1	1	2.681	2.8147	4.052	0.181	-1.1153	8.1641	1.3314	2.9418	11.0948	14.789	-2.9856	1.9095	2.4381	6.0076	1.9395	0.0419	8.2772	-1.3439	-2.5611	3.8277	11.9343	0.3488	0.2173	0.4242	0.2483	0.2018	0.3614	0.2519	0.445	0.219	0.3897	0.2388	0.5059	0.3496	0.3224	0.4696	0.5144	0.3239	0.288	0.2042	6.3242	1.5066	4.1818	1	202	0.986189859253822	1	0
"203"	1	19	3	1	1.845	1	9	-1	0	2.952	1.4862	2.8637	6.6242	-4.5736	0.7182	-3.9737	13.5037	5.7606	0.9615	-1.8421	-5.7226	6.3371	-2.0085	6.4894	5.7099	-2.426	7.7684	3.056	-2.932	0.946	0.333	0.333	0.333	0.333	0.333	0.333	0.333	0.333	0.333	0.333	0.333	0.333	0.333	0.333	0.333	0.333	0.333	0.333	0.333	6.327	1.4523	4.4189	1	203	1.08248290673823	0	1
"204"	1	64	3	-4	-7.38	0	6	-1	1	1.505	-6.5704	-17.4021	-9.0338	-11.2684	-10.6509	-2.4572	-16.1281	-12.4908	-1.9488	1.6549	-2.7526	-0.8414	-6.6754	-8.6158	-5.9823	-8.7501	-8.5809	-9.5066	-6.4265	-1.5831	0.2846	0.2585	0.2239	0.3593	0.2478	0.2032	0.3571	0.2417	0.2797	0.3542	0.4657	0.385	0.4725	0.3117	0.4786	0.3754	0.2599	0.3195	0.451	6.3293	1.5691	3.0894	1	204	0.408792898200839	0	1
"205"	1	18	3	0	0	1	5	1	0	1.492	3.5283	4.4289	-2.2123	-1.3304	8.1581	-7.8012	-1.9099	-3.8182	5.6157	-9.256	-2.4567	1.2903	-1.2342	9.1819	-5.6544	4.055	-4.4483	0.3112	2.9765	1.1935	0.333	0.333	0.333	0.333	0.333	0.333	0.333	0.333	0.333	0.333	0.333	0.333	0.333	0.333	0.333	0.333	0.333	0.333	0.333	6.327	1.4311	2.9425	1	205	0.400117501781569	1	0
"206"	1	49	3	4	7.38	1	7	1	1	2.015	4.1025	8.9308	8.632	6.2657	9.1389	4.6665	15.7334	10.2595	6.2115	13.0274	6.5617	1.191	4.3701	-6.6821	13.9039	7.4601	5.1886	8.1276	8.6406	12.8123	0.333	0.333	0.333	0.333	0.333	0.333	0.333	0.333	0.333	0.333	0.333	0.333	0.333	0.333	0.333	0.333	0.333	0.333	0.333	6.327	1.4977	3.5324	1	206	0.700619195398646	1	0
"207"	1	34	3	2	3.69	1	7	1	1	2.32	0.4027	0.9914	4.4034	2.841	8.9013	7.7268	10.5872	0.9154	9.9891	0.9022	-6.4756	-0.0602	0.2736	15.3177	4.8607	4.2937	0.4854	4.3369	0.7499	0.6737	0.333	0.333	0.333	0.333	0.333	0.333	0.333	0.333	0.333	0.333	0.333	0.333	0.333	0.333	0.333	0.333	0.333	0.333	0.333	6.327	1.6913	4.0204	1	207	0.841567185678219	1	0
"208"	1	3	3	-1	-1.845	1	9	-1	1	2.863	-5.7952	-0.1011	-11.0153	-9.8093	6.1649	5.0118	1.4391	-6.2918	2.5202	-2.4797	4.6055	-2.4359	-5.3803	-3.1696	1.4713	-0.7171	-6.3296	-7.4754	2.1931	2.6744	0.333	0.333	0.333	0.333	0.333	0.333	0.333	0.333	0.333	0.333	0.333	0.333	0.333	0.333	0.333	0.333	0.333	0.333	0.333	6.327	1.5224	4.3967	1	208	1.05187002611598	0	1
"209"	1	8	3	-4	-7.38	0	10	-1	1	2.994	-7.756	-5.9724	1.092	-18.6553	-14.0652	-4.2348	-3.8316	-7.6712	-7.9763	-6.4004	-9.529	-8.3153	-0.1685	-5.357	-6.2438	-6.8198	-17.0223	-2.5176	-5.6423	-11.7382	0.3679	0.2099	0.3726	0.2669	0.405	0.2668	0.3422	0.2814	0.3539	0.3153	0.2143	0.3232	0.4729	0.4459	0.3441	0.2622	0.4843	0.3298	0.2715	6.33	1.6357	4.6447	1	209	1.09661028599744	0	1
"210"	1	43	3	-4	-7.38	1	4	-1	1	1.095	-7.6485	-13.6086	-17.2922	1.8161	-6.7529	-13.8875	-8.6305	-8.4801	-8.5137	-11.6763	-5.3141	-0.3021	-10.241	-6.8592	-4.7818	2.8346	-11.3824	-5.7561	-4.1067	-8.2915	0.333	0.333	0.333	0.333	0.333	0.333	0.333	0.333	0.333	0.333	0.333	0.333	0.333	0.333	0.333	0.333	0.333	0.333	0.333	6.327	1.4378	2.5454	1	210	0.0907543632684641	0	1
"211"	1	7	4	4	7.38	1	5	1	1	1.401	11.6176	10.0278	11.8729	1.7853	6.4542	9.0412	8.5713	14.7406	14.6198	3.4712	5.2033	11.3456	15.4051	9.3183	3.2163	3.5635	-0.4524	4.2971	2.9259	0.5442	0.333	0.333	0.333	0.333	0.333	0.333	0.333	0.333	0.333	0.333	0.333	0.333	0.333	0.333	0.333	0.333	0.333	0.333	0.333	6.327	1.7052	3.1015	1	211	0.33718626735487	1	0
"212"	1	8	4	-4	-7.38	0	6	-1	1	1.92	-6.8077	-4.6793	-6.5277	-8.4367	-1.2601	-5.6192	-15.9784	-2.9854	-3.7412	-16.8207	-5.3342	-12.3061	-8.2026	-19.3164	-6.7701	-4.7014	-1.5445	-5.4476	-5.5736	-6.8013	0.4644	0.2743	0.4035	0.2046	0.2639	0.4587	0.3888	0.2999	0.3976	0.306	0.4037	0.2571	0.4306	0.3862	0.2126	0.3462	0.2667	0.3481	0.221	6.3341	1.6455	3.5871	1	212	0.65232518603969	0	1
"213"	1	1	4	-4	-7.38	1	6	-1	1	1.938	-7.2484	-5.462	-1.1975	-2.2077	-7.0842	-7.9329	-12.3025	-17.1736	-3.722	-7.6009	-9.2233	-11.7719	-4.1011	-7.1079	-14.2918	-10.439	-12.8281	-8.6837	2.3328	0.0574	0.333	0.333	0.333	0.333	0.333	0.333	0.333	0.333	0.333	0.333	0.333	0.333	0.333	0.333	0.333	0.333	0.333	0.333	0.333	6.327	1.6832	3.639	1	213	0.661656513468574	0	1
"214"	1	49	4	4	7.38	1	4	1	1	1.286	10.4861	10.2843	7.5062	3.8227	12.2767	9.6997	11.2812	4.9757	7.0408	9.8489	8.227	4.769	-2.6367	1.2431	13.1775	14.4344	12.7127	5.8292	6.4012	-3.4461	0.333	0.333	0.333	0.333	0.333	0.333	0.333	0.333	0.333	0.333	0.333	0.333	0.333	0.333	0.333	0.333	0.333	0.333	0.333	6.327	1.4495	2.7532	1	214	0.251536625815428	1	0
"215"	1	42	4	4	7.38	0	6	1	1	1.695	11.223	-1.9484	9.1235	10.0551	10.2738	1.9756	5.0673	3.2249	11.8011	5.9663	3.1947	6.1361	6.9559	11.0242	19.6611	11.897	4.3533	0.872	6.111	10.9922	0.2746	0.412	0.275	0.2267	0.2589	0.3879	0.2045	0.2615	0.3954	0.2741	0.3975	0.2394	0.4325	0.4735	0.391	0.4516	0.4993	0.2453	0.2181	6.3189	1.5791	3.2955	1	215	0.527682740832414	1	0
"216"	1	43	4	-4	-7.38	1	4	-1	1	1.212	-10.9612	-6.3321	-6.8335	-2.5931	-6.2709	-15.283	-11.761	-12.861	-3.0209	1.6276	-11.0301	-8.0714	0.0851	-10.3431	-16.1834	0.5159	-5.2627	-8.0844	-5.9617	-7.4787	0.333	0.333	0.333	0.333	0.333	0.333	0.333	0.333	0.333	0.333	0.333	0.333	0.333	0.333	0.333	0.333	0.333	0.333	0.333	6.327	1.4199	2.646	1	216	0.192271887647123	0	1
"217"	1	23	4	-2	-3.69	0	6	-1	1	1.8	-7.1209	-3.6184	-1.3379	-0.0499	-9.5868	-1.4171	-5.7948	5.3264	-0.7903	-3.623	-3.2918	-2.5898	-6.52	6.5938	-13.1637	-0.3019	-8.8383	-3.0062	-4.589	-11.3102	0.3431	0.3826	0.2194	0.3668	0.281	0.2308	0.2695	0.5042	0.202	0.3642	0.3075	0.4149	0.3513	0.4764	0.221	0.4738	0.2004	0.3243	0.3886	6.3219	1.5468	3.3507	1	217	0.587786664902119	0	1
"218"	1	31	4	-1	-1.845	1	5	1	0	1.497	2.6771	-4.3842	0.7604	4.3623	-17.263	3.5577	-8.016	2.051	-1.8157	-3.5985	1.1796	-7.6374	-1.277	-3.3484	-1.5487	-4.5818	-0.9784	1.8958	-3.1769	2.9166	0.333	0.333	0.333	0.333	0.333	0.333	0.333	0.333	0.333	0.333	0.333	0.333	0.333	0.333	0.333	0.333	0.333	0.333	0.333	6.327	1.4554	2.9643	1	218	0.403463105437491	1	0
"219"	1	50	4	-4	-7.38	0	6	-1	1	1.761	-7.2113	1.8974	-8.2521	-3.4608	-3.265	-6.9163	-3.0997	-10.2958	-7.7355	-1.0315	-14.0579	-9.9548	-6.7955	-14.0289	-15.5416	-9.3499	-4.2406	-3.0421	-16.0205	-3.3332	0.2899	0.2099	0.4901	0.2069	0.2469	0.3453	0.2269	0.3829	0.3316	0.4995	0.362	0.2796	0.5277	0.2672	0.3016	0.3869	0.5304	0.2017	0.2399	6.3268	1.5961	3.3614	1	219	0.565881829514069	0	1
"220"	1	29	4	-4	-7.38	1	4	-1	1	1.15	-2.9965	-8.9617	-7.3256	-16.2395	-3.9595	-1.3658	-7.142	-10.5155	-9.9814	3.8292	-9.2996	-5.3549	-14.7534	-7.5926	-11.8152	-1.3356	-4.9311	-15.0953	-8.5386	-5.2825	0.333	0.333	0.333	0.333	0.333	0.333	0.333	0.333	0.333	0.333	0.333	0.333	0.333	0.333	0.333	0.333	0.333	0.333	0.333	6.327	1.4489	2.6011	1	220	0.139761942375159	0	1
"221"	1	67	4	0	0	0	11	-1	1	3.061	1.9749	-5.6618	8.7774	-0.2908	1.8772	-1.4125	1.269	-5.5103	3.5242	-2.4537	2.6776	-3.8536	9.1556	-2.0542	1.2597	-1.3632	4.9485	-11.7159	2.0778	-4.5472	0.2097	0.2882	0.3351	0.2458	0.3233	0.278	0.4759	0.2929	0.339	0.2078	0.2605	0.4883	0.2895	0.4956	0.2302	0.5133	0.4824	0.2398	0.3406	6.3359	1.4365	4.5118	1	221	1.11874165996328	0	1
"222"	1	36	4	-4	-7.38	0	5	-1	1	1.562	-4.4741	-4.472	1.4801	-4.0615	-8.6936	-16.4939	-1.1571	-10.4045	-10.5991	-9.7246	-13.4585	-4.6222	-0.5885	-11.6927	-8.0932	-14.2571	-7.5522	-6.2736	-1.0724	-11.8057	0.2551	0.4886	0.2814	0.3184	0.5136	0.2784	0.2436	0.361	0.3965	0.2311	0.4637	0.3624	0.4356	0.2539	0.4916	0.2109	0.2441	0.2122	0.2781	6.3202	1.4835	3.0458	1	222	0.445967051417494	0	1
"223"	1	25	4	0	0	0	6	-1	1	1.89	-3.6227	4.4949	1.3241	-2.9766	-3.8174	-1.2216	-2.7403	-5.8872	2.2718	1.1955	-0.3732	8.62	-1.7479	5.0111	7.2099	3.6655	3.2785	-12.7062	-2.9047	-0.2061	0.3352	0.4128	0.2206	0.2778	0.3289	0.5123	0.2694	0.5001	0.2561	0.2088	0.2919	0.3419	0.2053	0.4519	0.2265	0.5248	0.2066	0.4351	0.3146	6.3207	1.625	3.5237	1	223	0.636576829071551	0	1
"224"	1	69	4	2	3.69	0	6	1	1	1.808	3.1826	6.8828	-0.5484	8.5026	2.8967	2.2347	2.6968	-3.8539	5.1083	-5.339	16.2341	10.5998	2.6109	-2.1606	2.0307	8.5205	3.3815	1.4148	2.098	6.3781	0.4332	0.3139	0.3427	0.2113	0.3652	0.2341	0.4655	0.3365	0.2073	0.3642	0.229	0.4476	0.3346	0.4703	0.2018	0.4182	0.3116	0.3674	0.2675	6.322	1.7174	3.5251	1	224	0.592221261969985	1	0
"225"	1	39	4	0	0	0	5	1	1	1.31	3.9295	6.8991	2.563	-0.6863	6.3038	-8.504	-7.2075	9.366	3.3932	3.3579	-0.6775	-3.9235	-2.9648	1.2632	1.3024	-6.5871	3.153	-4.0778	-6.7694	1.5254	0.2386	0.4249	0.3897	0.2295	0.2666	0.4476	0.1999	0.351	0.3128	0.4381	0.2658	0.4457	0.3351	0.3976	0.3177	0.2313	0.3582	0.3846	0.3002	6.3348	1.6892	2.9941	1	225	0.27002713721306	1	0
"226"	1	46	4	0	0	1	6	-1	1	1.684	-3.2371	-6.205	-5.5271	-6.0561	4.3108	-1.3133	12.3249	-1.1057	-1.4503	3.5298	-2.6852	6.3359	2.8053	-2.1252	0.6756	8.3591	-2.5109	-4.075	-0.8965	-2.0439	0.333	0.333	0.333	0.333	0.333	0.333	0.333	0.333	0.333	0.333	0.333	0.333	0.333	0.333	0.333	0.333	0.333	0.333	0.333	6.327	1.6813	3.3851	1	226	0.521171915820135	0	1
"227"	1	12	4	1	1.845	0	6	1	1	1.851	3.3926	-4.0675	10.5475	14.9575	-3.7421	3.1773	0.9042	5.7829	4.1175	0.9563	-0.9384	-4.3885	-1.7436	0.7142	3.1494	4.3137	0.0128	1.0977	4.0615	-5.6575	0.3293	0.4696	0.2994	0.3442	0.2693	0.4282	0.5105	0.2248	0.2766	0.3375	0.2175	0.3946	0.2966	0.4192	0.2943	0.2186	0.3149	0.4879	0.2015	6.3345	1.56	3.4178	1	227	0.61572603359136	1	0
"228"	1	59	4	-1	-1.845	1	9	-1	1	2.805	-3.1132	3.7412	0.7391	1.9426	-1.1323	-9.518	-12.1794	-1.5194	0.5348	2.8576	-6.1347	-3.2136	-5.099	8.8126	-0.9173	-2.0103	1.0009	-6.3818	0.8057	-7.7014	0.333	0.333	0.333	0.333	0.333	0.333	0.333	0.333	0.333	0.333	0.333	0.333	0.333	0.333	0.333	0.333	0.333	0.333	0.333	6.327	1.5616	4.3889	1	228	1.03140353897466	0	1
"229"	1	30	4	-2	-3.69	1	6	-1	1	1.916	-8.4483	1.8648	0.3063	-6.1966	-1.9661	-4.4989	-4.1221	-2.0029	-9.8857	-11.2338	-5.9136	3.0336	-0.9753	-5.4585	-4.7	-0.6551	5.8054	-12.5363	3.0285	-7.4403	0.333	0.333	0.333	0.333	0.333	0.333	0.333	0.333	0.333	0.333	0.333	0.333	0.333	0.333	0.333	0.333	0.333	0.333	0.333	6.327	1.7065	3.6338	1	229	0.650239679548669	0	1
"230"	1	37	4	-2	-3.69	0	5	-1	1	1.788	-6.7136	-3.9158	-3.6186	-11.1315	-8.2697	-6.5251	5.4079	5.8284	0.3249	-4.8203	1.937	-2.0839	-11.3688	-4.8363	0.727	-7.2143	-1.3515	-6.8657	-8.9594	0.2906	0.4043	0.3538	0.416	0.2555	0.53	0.2108	0.344	0.2333	0.404	0.2016	0.2643	0.393	0.2818	0.3325	0.4382	0.2433	0.3182	0.3737	0.319	6.3176	1.4069	3.2049	1	230	0.581097676751322	0	1
"231"	1	61	4	1	1.845	1	7	1	1	2.288	2.9107	2.1351	-3.6384	1.743	0.6996	6.3909	8.0106	-1.3453	-10.7395	3.7242	5.8924	1.3623	-5.1675	-1.7319	1.7012	0.7927	7.9963	11.0854	1.4168	5.1656	0.333	0.333	0.333	0.333	0.333	0.333	0.333	0.333	0.333	0.333	0.333	0.333	0.333	0.333	0.333	0.333	0.333	0.333	0.333	6.327	1.6287	3.9222	1	231	0.827678073517551	1	0
"232"	1	19	4	1	1.845	1	7	1	1	2.326	2.5027	8.4069	-6.7612	3.8698	-9.3643	5.4028	8.2568	3.5548	5.7594	2.2599	5.0982	3.856	-3.019	-5.9348	3.7686	8.4191	-0.9227	1.2746	1.754	-0.7734	0.333	0.333	0.333	0.333	0.333	0.333	0.333	0.333	0.333	0.333	0.333	0.333	0.333	0.333	0.333	0.333	0.333	0.333	0.333	6.327	1.6444	3.9765	1	232	0.844150054096473	1	0
"233"	1	47	4	1	1.845	1	5	1	1	1.574	2.4988	1.2179	10.9776	15.8197	-1.8513	-0.4706	-5.2138	2.579	-1.4946	-2.0465	5.6451	-0.7572	-3.0362	1.2699	4.8697	1.7444	5.676	2.2381	-0.2045	-1.296	0.333	0.333	0.333	0.333	0.333	0.333	0.333	0.333	0.333	0.333	0.333	0.333	0.333	0.333	0.333	0.333	0.333	0.333	0.333	6.327	1.605	3.1911	1	233	0.453620149995212	1	0
"234"	1	22	4	-4	-7.38	0	9	-1	1	2.756	-11.0028	-12.5014	-3.0802	-1.0992	-3.6339	-9.1759	-11.666	-13.4426	-16.4253	-6.3652	-5.7613	-11.1403	-6.0605	-9.0981	-3.1051	-4.3095	-11.9797	-1.6629	2.5344	-9.8956	0.3275	0.3628	0.2702	0.2075	0.2409	0.4033	0.4778	0.3737	0.2819	0.5104	0.3582	0.2735	0.2177	0.2459	0.2786	0.4213	0.337	0.3025	0.4282	6.3191	1.6347	4.3898	1	234	1.01378035315141	0	1
"235"	1	5	4	1	1.845	1	7	1	1	2.076	-1.9856	5.0496	-2.1138	-9.6378	-0.0683	8.3457	-2.3607	3.9413	5.018	-0.4177	-4.1928	5.233	4.7942	1.6548	0.5499	1.9868	8.5526	5.4488	-2.7127	10.7052	0.333	0.333	0.333	0.333	0.333	0.333	0.333	0.333	0.333	0.333	0.333	0.333	0.333	0.333	0.333	0.333	0.333	0.333	0.333	6.327	1.5043	3.5932	1	235	0.730442965303642	1	0
"236"	1	38	4	-1	-1.845	0	6	1	0	2.114	0.1709	-5.0802	4.435	3.5839	3.0837	3.8177	-9.2636	2.1253	-3.2191	6.7698	-7.189	-5.5316	-1.2057	-6.7839	-5.7679	-10.119	-2.4056	-2.8862	-5.3055	4.5675	0.4741	0.2533	0.4439	0.2504	0.3365	0.3964	0.2655	0.3734	0.2667	0.3578	0.2548	0.3548	0.2829	0.3782	0.4085	0.2954	0.3515	0.2126	0.3795	6.3362	1.6872	3.7977	1	236	0.748581887448046	1	0
"237"	1	65	4	-2	-3.69	0	7	-1	1	2.134	-1.8089	-9.96	5.268	-2.2272	-7.9102	3.0325	-6.1796	-7.099	-10.0023	2.3428	-9.0853	-2.333	-1.1676	-5.4555	-0.9432	-11.3706	-8.2714	2.3248	-3.3385	1.4104	0.446	0.2673	0.3255	0.2667	0.2353	0.5068	0.2881	0.459	0.208	0.2348	0.3855	0.3028	0.4816	0.4225	0.2562	0.3184	0.2755	0.4394	0.2074	6.3268	1.5165	3.651	1	237	0.757998152879562	0	1
"238"	1	3	4	-1	-1.845	1	7	-1	1	2.268	1.5155	-6.7029	-2.48	-3.2377	-0.5004	6.1801	-8.2512	5.3175	3.4845	0.8813	-7.2558	-1.2387	1.0296	-1.1613	-3.2474	-13.7494	-1.7699	4.2304	-1.9951	-6.008	0.333	0.333	0.333	0.333	0.333	0.333	0.333	0.333	0.333	0.333	0.333	0.333	0.333	0.333	0.333	0.333	0.333	0.333	0.333	6.327	1.4273	3.7024	1	238	0.818898385865506	0	1
"239"	1	54	4	1	1.845	0	8	1	1	2.341	4.8475	9.3826	3.7644	4.2295	-4.2303	6.6335	7.3532	4.4585	-4.8532	-6.5561	-7.4177	7.0032	4.9022	-1.8818	3.3536	1.5925	2.6868	3.4547	-5.0959	2.9112	0.2465	0.3439	0.2114	0.2465	0.4489	0.375	0.2501	0.4024	0.204	0.5183	0.2963	0.2153	0.2588	0.4973	0.2894	0.4747	0.5225	0.246	0.2763	6.3235	1.5278	3.8914	1	239	0.850578188508774	1	0
"240"	1	45	4	-1	-1.845	1	8	-1	1	2.455	-5.0683	-1.9596	-6.8401	2.3126	-3.7199	10.1281	-5.4574	4.5242	-6.2361	-3.7872	-0.5469	-3.4621	-0.1988	-11.0853	1.6339	-1.0768	-6.2711	2.6671	-5.6738	5.0208	0.333	0.333	0.333	0.333	0.333	0.333	0.333	0.333	0.333	0.333	0.333	0.333	0.333	0.333	0.333	0.333	0.333	0.333	0.333	6.327	1.455	3.9226	1	240	0.898126761246484	0	1
"241"	1	20	4	2	3.69	1	5	1	1	1.562	6.5799	8.8421	14.3052	1.9649	1.7712	-0.562	4.3366	4.2179	0.5133	-1.4809	-1.2744	5.833	-3.5599	8.8725	7.9033	-3.6097	2.1582	10.9491	6.8498	1.1533	0.333	0.333	0.333	0.333	0.333	0.333	0.333	0.333	0.333	0.333	0.333	0.333	0.333	0.333	0.333	0.333	0.333	0.333	0.333	6.327	1.6181	3.1966	1	241	0.445967051417494	1	0
"242"	1	58	4	-2	-3.69	1	8	-1	1	2.354	-5.1141	4.7637	-3.3403	-1.8092	-8.9349	1.0071	-1.7896	-2.1819	-5.8152	-11.3496	0.8291	-7.3377	-14.8739	-1.0915	-2.5737	2.0193	-10.2755	-1.9781	-0.0629	-5.5448	0.333	0.333	0.333	0.333	0.333	0.333	0.333	0.333	0.333	0.333	0.333	0.333	0.333	0.333	0.333	0.333	0.333	0.333	0.333	6.327	1.5353	3.9049	1	242	0.856116008838085	0	1
"243"	1	18	4	0	0	1	4	1	0	1.206	4.6556	3.1773	1.1088	2.8682	2.8348	-5.4099	4.5984	-3.1425	-7.8721	-1.7004	4.5491	5.0097	-5.4131	-0.904	-3.9271	-11.7151	6.4297	6.409	-1.5089	0.2549	0.333	0.333	0.333	0.333	0.333	0.333	0.333	0.333	0.333	0.333	0.333	0.333	0.333	0.333	0.333	0.333	0.333	0.333	0.333	6.327	1.6727	2.8905	1	243	0.187309098304994	1	0
"244"	1	52	4	-1	-1.845	0	8	-1	1	2.399	-3.3521	-1.3784	-9.0908	3.0535	-11.064	-7.8445	-8.3414	-0.0976	2.1882	2.1996	0.9941	-7.3026	3.848	-2.5161	-2.2433	-4.7407	-0.6623	5.2479	-1.9316	5.3118	0.293	0.3956	0.4588	0.2409	0.308	0.4142	0.2497	0.2099	0.3744	0.3404	0.5065	0.42	0.3942	0.3059	0.2634	0.2089	0.2964	0.2139	0.4234	6.3175	1.4129	3.8166	1	244	0.875051983857558	0	1
"245"	1	68	4	1	1.845	0	9	-1	0	2.996	3.8762	-5.5457	4.8843	-9.1334	-0.4	4.3172	-1.2413	7.1511	0.1409	5.1762	6.5254	8.3394	2.8631	7.299	2.7328	5.2586	5.4443	-5.4029	-0.9655	-3.101	0.2309	0.5243	0.3941	0.465	0.2527	0.311	0.4593	0.2074	0.3137	0.4402	0.5028	0.226	0.3554	0.2165	0.3129	0.2348	0.4322	0.2017	0.2503	6.3314	1.6633	4.6632	1	245	1.09727806565497	0	1
"246"	1	56	4	4	7.38	0	5	1	1	1.44	3.5821	10.6102	8	11.3125	7.2829	5.2162	-4.0251	10.8174	0.1536	7.9621	9.65	5.2697	13.7729	1.364	14.5808	13.5566	6.1342	3.284	13.2732	7.288	0.302	0.2669	0.4308	0.3768	0.2551	0.3528	0.5304	0.2976	0.347	0.3824	0.2132	0.3112	0.2002	0.2717	0.3729	0.3034	0.3966	0.3345	0.381	6.3265	1.5805	3.0239	1	246	0.364643113587909	1	0
"247"	1	24	4	-1	-1.845	0	6	1	0	1.773	-4.2427	1.0529	2.5281	-4.8355	2.5095	4.1047	-9.1046	3.5791	-4.9246	2.7834	1.6966	-13.6448	-4.4664	-2.4557	-7.5968	-5.7276	-4.5444	0.083	0.7729	3.8278	0.4114	0.2119	0.258	0.4474	0.3767	0.2018	0.3531	0.3928	0.2802	0.4222	0.2106	0.3634	0.3977	0.2462	0.2779	0.4036	0.4575	0.3811	0.2381	6.3313	1.6244	3.407	1	247	0.572673027092071	1	0
"248"	1	40	4	1	1.845	0	11	-1	0	3.378	5.5269	2.9344	3.9626	5.1182	0.6267	1.553	-2.4459	-5.71	-1.4607	2.2552	8.5903	-2.6204	5.6983	-1.5777	-6.4382	6.1174	-4.7278	5.8112	1.257	13.1326	0.287	0.3978	0.4301	0.2187	0.2572	0.4895	0.3639	0.2004	0.2318	0.3194	0.469	0.2776	0.2387	0.5114	0.4108	0.2596	0.3885	0.3363	0.2426	6.3304	1.5609	4.9458	1	248	1.21728381838561	0	1
"249"	1	6	4	2	3.69	1	6	1	1	1.776	8.0398	12.8884	3.1585	5.3672	1.0735	5.9288	6.2119	-1.8969	-5.7115	-2.6517	10.2518	6.4307	1.5686	2.285	1.382	8.564	-1.5109	2.6245	9.629	-1.2958	0.333	0.333	0.333	0.333	0.333	0.333	0.333	0.333	0.333	0.333	0.333	0.333	0.333	0.333	0.333	0.333	0.333	0.333	0.333	6.327	1.7166	3.4938	1	249	0.574363644569978	1	0
"250"	1	21	4	4	7.38	1	7	1	1	2.205	5.7271	3.1047	5.0713	-0.387	18.6634	7.7945	8.9088	11.0041	10.4515	3.9781	-0.4158	1.5948	6.1057	9.4009	15.7563	11.6033	13.3026	5.6376	6.343	4.3753	0.333	0.333	0.333	0.333	0.333	0.333	0.333	0.333	0.333	0.333	0.333	0.333	0.333	0.333	0.333	0.333	0.333	0.333	0.333	6.327	1.4722	3.6719	1	250	0.790727508898809	1	0
"251"	1	35	4	4	7.38	1	6	1	1	1.761	10.6106	8.2236	6.4366	12.8738	9.153	-1.3147	9.1647	2.2389	14.1582	-1.6266	5.2437	-0.523	18.1637	6.7205	7.6384	7.1321	4.9733	11.9881	6.3949	8.2259	0.333	0.333	0.333	0.333	0.333	0.333	0.333	0.333	0.333	0.333	0.333	0.333	0.333	0.333	0.333	0.333	0.333	0.333	0.333	6.327	1.4226	3.1951	1	251	0.565881829514069	1	0
"252"	1	63	4	4	7.38	1	5	1	1	1.661	4.9978	15.1926	12.3709	5.4126	8.8846	9.99	7.0884	2.2858	18.8042	1.949	9.8815	-0.2252	4.3878	8.9176	11.3199	6.0493	-1.4443	5.8298	7.5301	9.1966	0.333	0.333	0.333	0.333	0.333	0.333	0.333	0.333	0.333	0.333	0.333	0.333	0.333	0.333	0.333	0.333	0.333	0.333	0.333	6.327	1.552	3.228	1	252	0.507419830631158	1	0
"253"	1	32	4	0	0	1	6	-1	1	1.779	-1.2527	-4.7756	6.4847	0.6047	-7.9157	-1.6922	-1.3611	-0.5203	-2.9894	-3.6232	8.719	7.8331	-4.7135	3.2051	8.6667	3.2697	-0.113	-3.4275	0.7978	-8.2989	0.333	0.333	0.333	0.333	0.333	0.333	0.333	0.333	0.333	0.333	0.333	0.333	0.333	0.333	0.333	0.333	0.333	0.333	0.333	6.327	1.6372	3.43	1	253	0.576051408683698	0	1
"254"	1	4	4	0	0	1	8	-1	0	2.46	-3.8435	-6.2332	8.8373	7.7417	1.6769	-0.6771	3.6407	-4.166	1.4274	-5.9145	3.8832	5.2701	-2.1882	0.9937	-0.6196	-1.9731	2.3234	-10.4112	-4.6681	2.9848	0.333	0.333	0.333	0.333	0.333	0.333	0.333	0.333	0.333	0.333	0.333	0.333	0.333	0.333	0.333	0.333	0.333	0.333	0.333	6.327	1.4816	3.9608	1	254	0.900161349944271	0	1
"255"	1	13	4	2	3.69	0	8	1	1	2.375	5.8884	12.9061	-0.2079	5.1198	-2.0844	2.4154	-3.6098	1.0301	12.5932	0.7975	-3.3816	4.2377	0.3714	1.8804	5.761	8.2823	11.8657	1.2768	7.057	0.7179	0.4411	0.2905	0.2295	0.3974	0.2112	0.4244	0.3471	0.2023	0.3387	0.3725	0.442	0.269	0.3612	0.264	0.381	0.2881	0.218	0.4712	0.3872	6.3363	1.5697	3.9591	1	255	0.864997437486605	1	0
"256"	1	60	4	0	0	1	8	-1	1	2.48	-2.2442	-1.9929	-4.007	7.7137	4.3054	4.1916	4.1267	8.3024	-2.5889	-9.5031	-5.1187	2.1869	3.2493	3.5542	1.7302	-7.5793	0.975	2.6001	-2.2738	-6.7204	0.333	0.333	0.333	0.333	0.333	0.333	0.333	0.333	0.333	0.333	0.333	0.333	0.333	0.333	0.333	0.333	0.333	0.333	0.333	6.327	1.6197	4.1146	1	256	0.908258560176891	0	1
"257"	1	44	4	-2	-3.69	1	10	-1	1	3.313	0.6057	1.2159	-3.3537	-4.9846	1.8713	-4.0064	0.2024	-5.2384	-17.7994	-7.1397	-0.9698	-2.4746	-11.5612	-9.0609	-2.6229	-2.6652	-2.8908	-2.9088	-2.1098	3.2625	0.333	0.333	0.333	0.333	0.333	0.333	0.333	0.333	0.333	0.333	0.333	0.333	0.333	0.333	0.333	0.333	0.333	0.333	0.333	6.327	1.6813	4.9967	1	257	1.19785412331776	0	1
"258"	1	33	4	1	1.845	1	10	1	1	3.125	2.0805	7.2079	-5.7446	3.5397	-1.8152	-5.2387	9.5741	2.2708	8.9744	-4.6684	-4.9082	8.1245	1.0961	2.5436	-2.3724	3.2045	-3.4966	4.6795	6.7098	5.2802	0.333	0.333	0.333	0.333	0.333	0.333	0.333	0.333	0.333	0.333	0.333	0.333	0.333	0.333	0.333	0.333	0.333	0.333	0.333	6.327	1.4728	4.6087	1	258	1.13943428318836	1	0
"259"	1	70	4	4	7.38	0	6	1	1	1.804	4.231	8.7112	5.3768	2.0309	19.0824	14.1936	5.8315	9.1499	3.3094	7.4176	10.1643	11.3727	16.0371	0.594	9.7932	5.5489	8.7179	4.2941	1.8917	1.119	0.2138	0.2658	0.4016	0.2622	0.4869	0.2088	0.3362	0.5016	0.4351	0.2287	0.3337	0.2109	0.3266	0.4955	0.3619	0.2579	0.5101	0.224	0.2634	6.3248	1.4497	3.2546	1	259	0.590006421640432	1	0
"260"	1	34	4	2	3.69	1	3	1	1	0.998	7.3174	11.5552	5.077	4.1187	3.8561	8.1931	9.8106	8.4007	-5.4456	10.1345	-0.3225	-5.489	6.1945	-1.693	4.5493	2.8911	2.3746	-0.4042	4.8808	-1.38	0.333	0.333	0.333	0.333	0.333	0.333	0.333	0.333	0.333	0.333	0.333	0.333	0.333	0.333	0.333	0.333	0.333	0.333	0.333	6.327	1.4496	2.4488	1	260	-0.00200200267067308	1	0
"261"	1	2	4	-2	-3.69	1	7	-1	1	2.077	-8.4965	-3.3511	-1.2255	-4.8219	-3.1245	-8.5934	-6.9081	-9.9141	5.8841	-0.9375	-0.3346	-6.9698	-7.6289	2.8273	6.2397	-6.3651	-0.1706	-5.9011	-10.7803	-4.2671	0.333	0.333	0.333	0.333	0.333	0.333	0.333	0.333	0.333	0.333	0.333	0.333	0.333	0.333	0.333	0.333	0.333	0.333	0.333	6.327	1.4329	3.5106	1	261	0.730924544893975	0	1
"262"	1	27	4	2	3.69	0	5	1	1	1.727	0.8086	5.2784	-0.0557	7.8771	7.6837	-2.4162	12.7224	2.6133	4.6462	-3.0202	2.224	0.8841	-2.0942	4.3331	5.4758	-3.0662	14.1073	1.5	9.1994	7.07	0.3886	0.2564	0.508	0.3073	0.2703	0.2375	0.2079	0.3638	0.2929	0.246	0.4442	0.2683	0.3184	0.204	0.529	0.3432	0.474	0.4278	0.2409	6.3284	1.603	3.3273	1	262	0.546385799164542	1	0
"263"	1	16	4	-2	-3.69	1	4	-1	1	1.16	-0.8193	-12.4465	-9.1031	8.6488	-2.8507	-3.229	-6.4957	-2.5453	-1.506	-4.9377	-3.5472	-8.6045	3.2075	-2.1017	-5.1734	-14.626	-2.0925	-1.5633	-1.1834	-4.2418	0.333	0.333	0.333	0.333	0.333	0.333	0.333	0.333	0.333	0.333	0.333	0.333	0.333	0.333	0.333	0.333	0.333	0.333	0.333	6.327	1.4156	2.5771	1	263	0.148420005118273	0	1
"264"	1	57	4	-4	-7.38	1	9	-1	1	2.879	-2.3935	-4.2473	3.0336	-7.6263	-3.6258	-4.4201	-12.0298	-3.9562	-7.1158	-6.4276	-5.3773	-11.0864	-8.2257	-12.0663	-16.1921	-14.721	0.5966	-11.8235	-11.7486	-7.562	0.333	0.333	0.333	0.333	0.333	0.333	0.333	0.333	0.333	0.333	0.333	0.333	0.333	0.333	0.333	0.333	0.333	0.333	0.333	6.327	1.7159	4.6135	1	264	1.05744301163004	0	1
"265"	1	17	4	-1	-1.845	1	11	-1	1	3.426	-1.7096	-6.9809	-1.9629	-3.4383	2.8066	-9.76	-5.9097	0.4948	-7.361	0.8433	3.3399	-5.8217	9.8895	-6.0845	2.0448	-6.8959	-4.1193	2.6819	-2.8006	3.5435	0.333	0.333	0.333	0.333	0.333	0.333	0.333	0.333	0.333	0.333	0.333	0.333	0.333	0.333	0.333	0.333	0.333	0.333	0.333	6.327	1.6528	5.0931	1	265	1.23139339990193	0	1
"266"	1	62	4	2	3.69	1	7	1	1	2.171	-0.2715	-0.7025	9.0373	1.8694	12.3627	-0.652	11.4598	2.348	-3.0539	2.5033	0.6873	0.013	-0.0978	11.9444	-2.0311	7.795	7.4752	2.8812	10.1125	1.7596	0.333	0.333	0.333	0.333	0.333	0.333	0.333	0.333	0.333	0.333	0.333	0.333	0.333	0.333	0.333	0.333	0.333	0.333	0.333	6.327	1.5972	3.7888	1	266	0.775187890896155	1	0
"267"	1	41	4	2	3.69	0	6	1	1	1.713	3.061	5.4821	-1.2186	4.7325	-4.7653	1.3084	10.7007	5.2071	10.0477	8.6396	1.4299	-4.0631	6.2754	5.2516	5.3263	-2.4907	10.8701	8.6173	0.793	-2.3482	0.324	0.5306	0.3181	0.2272	0.2668	0.2998	0.3611	0.2133	0.2528	0.2024	0.5056	0.3758	0.3239	0.472	0.3052	0.2595	0.4824	0.2282	0.3792	6.3279	1.4316	3.1637	1	267	0.538246219341983	1	0
"268"	1	28	4	4	7.38	0	7	1	1	1.976	3.3428	4.3682	5.2326	7.5586	9.432	10.4586	10.9911	14.3399	2.2122	8.3463	9.7276	12.1867	-2.5808	5.0952	10.1934	3.1405	4.5282	8.7869	18.1422	0.2174	0.262	0.3751	0.2841	0.4641	0.2536	0.2077	0.3428	0.2727	0.2025	0.5124	0.3487	0.2753	0.3768	0.3186	0.4834	0.213	0.4884	0.4092	0.2326	6.323	1.4948	3.4768	1	268	0.681074599325676	1	0
"269"	1	26	4	1	1.845	0	9	-1	0	2.732	-2.782	-1.2252	5.5684	5.4029	0.5837	7.6833	2.1973	10.2038	0.2834	-2.0646	-2.8282	2.2574	11.4783	0.9406	2.1859	-7.18	-1.2138	8.8383	-3.3429	-0.1111	0.4081	0.4839	0.2317	0.383	0.2037	0.4168	0.2805	0.3194	0.2134	0.27	0.3027	0.2605	0.4417	0.5034	0.258	0.3726	0.2722	0.3807	0.3265	6.3287	1.7098	4.4497	1	269	1.00503394170854	0	1
"270"	1	64	4	-4	-7.38	0	7	-1	1	2.267	-9.3993	-3.4479	-8.3959	-0.8554	-6.3854	-16.3681	-6.6369	-5.2189	-3.887	-14.1838	-8.8465	-5.0756	3.8536	-10.5165	-11.7018	-8.5181	-15.3578	-7.8037	-4.8668	-2.7813	0.3573	0.4945	0.2555	0.3268	0.274	0.3633	0.2248	0.4034	0.3164	0.5125	0.3857	0.2706	0.3443	0.2737	0.4417	0.2116	0.4043	0.25	0.2161	6.3264	1.544	3.8173	1	270	0.818457371525392	0	1
"271"	1	53	4	0	0	0	8	1	1	2.509	-1.6554	0.4971	0.5865	0.3145	-5.5153	-0.0307	-8.4955	7.6113	-6.2348	3.5974	-7.4389	1.127	2.5472	6.6348	4.4744	1.3305	-0.7656	-3.2725	-6.3452	9.0531	0.2375	0.4448	0.4956	0.2866	0.2349	0.3116	0.3489	0.3152	0.2123	0.4106	0.5021	0.3139	0.3479	0.2947	0.4181	0.2714	0.2115	0.3928	0.2689	6.3193	1.7319	4.2428	1	271	0.919884267384285	1	0
"272"	1	9	4	-2	-3.69	0	11	-1	1	3.354	-0.2006	-0.6678	-5.66	-1.5918	-3.9551	-9.3302	-4.6041	2.4448	-7.0136	-8.4205	-2.9509	-0.9058	1.6266	-6.6049	-3.2257	-0.0033	-18.7801	-7.0271	0.0667	2.9381	0.3998	0.4951	0.2666	0.3116	0.3952	0.2058	0.2681	0.2083	0.3427	0.3913	0.4218	0.3456	0.3061	0.3783	0.2379	0.4114	0.3178	0.3678	0.2552	6.3264	1.6204	4.9716	1	272	1.21015366340102	0	1
"273"	1	14	4	4	7.38	0	8	1	1	2.218	9.4808	4.6475	14.1293	-3.5939	8.5027	7.2952	8.4157	10.6095	9.1077	4.2193	5.1269	9.6179	8.4328	-0.2464	12.324	-0.7588	2.3863	11.1222	12.8465	13.0701	0.2297	0.2735	0.4917	0.2442	0.2838	0.3499	0.2011	0.4317	0.2853	0.351	0.4636	0.2327	0.3095	0.373	0.5106	0.2355	0.4173	0.372	0.2716	6.3276	1.5396	3.7689	1	273	0.796605888928175	1	0
"274"	1	66	4	-1	-1.845	0	12	1	0	3.828	2.1303	-7.9786	-1.7068	7.5249	-7.2682	2.2678	-5.0372	-0.0759	6.4066	-0.017	-4.055	-5.5431	-2.4777	-5.8551	-1.3358	7.3489	-7.4862	-5.0898	-7.8158	0.8581	0.2372	0.4467	0.3264	0.2168	0.362	0.3902	0.2849	0.331	0.419	0.267	0.2345	0.3361	0.5018	0.2803	0.2181	0.3579	0.3963	0.2531	0.4693	6.3285	1.6667	5.4956	1	274	1.34234247359071	1	0
"275"	1	15	4	-4	-7.38	1	4	-1	1	1.04	-4.6121	-0.6778	-7.1169	-14.5668	-6.1111	-10.1553	-11.6672	-5.8166	-0.1506	-8.8	-11.6827	-3.3576	-1.4378	-18.6991	-5.8609	-4.3536	-12.7507	-11.6731	-2.0107	-8.0414	0.333	0.333	0.333	0.333	0.333	0.333	0.333	0.333	0.333	0.333	0.333	0.333	0.333	0.333	0.333	0.333	0.333	0.333	0.333	6.327	1.6699	2.7241	1	275	0.0392207131532813	0	1
"276"	1	11	4	0	0	0	5	1	1	1.492	-0.76	-0.2703	-3.9148	-3.1663	1.9489	-10.3548	7.1585	5.3776	1.8145	-1.7878	-2.7806	0.3113	0.6049	3.5273	-0.5026	-9.4498	1.3949	-1.6846	10.1734	4.0777	0.2235	0.4325	0.3056	0.3526	0.2396	0.3017	0.2419	0.293	0.2065	0.5267	0.3703	0.2306	0.2906	0.4744	0.251	0.341	0.526	0.4363	0.2742	6.318	1.6784	3.1928	1	276	0.400117501781569	1	0
"277"	1	10	4	-1	-1.845	0	12	-1	1	3.642	2.6477	-9.5379	-7.2239	-0.2405	-5.0056	1.8753	-4.3951	0.421	1.3935	-10.7987	6.0398	-3.966	-9.3222	-0.7921	-1.8601	3.2675	-3.5234	4.2142	-6.0377	4.8545	0.3298	0.3043	0.3984	0.264	0.4399	0.2334	0.2048	0.2512	0.4793	0.2315	0.3023	0.5248	0.2792	0.3793	0.506	0.3963	0.2377	0.2967	0.2715	6.3302	1.4178	5.0765	1	277	1.29253298130542	0	1
"278"	1	55	4	2	3.69	0	7	1	1	2.386	1.4686	8.5293	2.4717	1.4935	-0.7493	9.1154	5.8653	1.9655	10.2173	4.9532	0.9746	-10.5481	4.346	8.1886	9.6859	4.3419	5.7701	-3.2602	7.032	1.3722	0.3851	0.3004	0.2453	0.3475	0.4728	0.5164	0.2164	0.3746	0.2477	0.3365	0.2695	0.3057	0.2584	0.471	0.33	0.222	0.3119	0.2297	0.4778	6.3187	1.45	3.8531	1	278	0.869618323675724	1	0
"279"	1	51	4	-2	-3.69	0	10	-1	1	2.928	-5.7146	-1.5975	-6.2051	-12.3048	-7.735	3.5843	-2.4058	-1.3625	4.4288	-11.916	-1.9859	-1.171	-6.6165	-0.8454	-5.0816	-1.478	-9.056	5.4906	-7.1305	-5.0856	0.268	0.2256	0.2786	0.2376	0.2732	0.3718	0.3977	0.2616	0.4692	0.5206	0.3217	0.2631	0.3538	0.3171	0.2258	0.342	0.4804	0.3255	0.4017	6.3351	1.5464	4.4785	1	279	1.07431959609907	0	1
"280"	1	48	4	2	3.69	1	7	1	1	2.139	6.7827	14.3452	-5.3602	1.664	1.1956	5.2741	4.1675	9.9756	3.4617	1.5194	8.026	3.5367	-5.0413	4.6119	6.708	6.7085	1.0661	7.4247	-4.9074	3.8637	0.333	0.333	0.333	0.333	0.333	0.333	0.333	0.333	0.333	0.333	0.333	0.333	0.333	0.333	0.333	0.333	0.333	0.333	0.333	6.327	1.4426	3.5893	1	280	0.760338430100268	1	0
