"subNo"	"index"	"block"	"level"	"mean"	"periodicity"	"nEvents"	"answer"	"isCorrect"	"rt"	"s1"	"s2"	"s3"	"s4"	"s5"	"s6"	"s7"	"s8"	"s9"	"s10"	"s11"	"s12"	"s13"	"s14"	"s15"	"s16"	"s17"	"s18"	"s19"	"s20"	"t1"	"t2"	"t3"	"t4"	"t5"	"t6"	"t7"	"t8"	"t9"	"t10"	"t11"	"t12"	"t13"	"t14"	"t15"	"t16"	"t17"	"t18"	"t19"	"seqDuration"	"startInterval"	"trialDuration"	"pID"	"Trial"	"rtLog"	"right"	"left"
"1"	19	40	1	1	1.075	0	1	1	1	0.109	-1.5308	8.913	-8.3093	0.6243	6.5333	6.137	1.3393	-7.6226	0.5806	2.1364	6.6	3.536	2.5595	-2.2018	1.4428	-3.8872	-0.8737	-1.0153	10.6991	-3.3125	0.4244	0.5259	0.2205	0.2764	0.3025	0.259	0.4687	0.2043	0.3479	0.3172	0.2332	0.3201	0.4882	0.3086	0.4246	0.226	0.2573	0.349	0.3753	6.3288	1.5501	1.6759	19	1	-2.21640739675299	1	0
"2"	19	62	1	2	2.15	1	6	1	1	1.908	3.8671	-0.5042	8.7261	1.359	3.6107	2.8424	-1.3929	6.904	2.682	8.2588	-3.0515	-0.5138	4.1188	-1.2366	-5.8198	-4.1246	10.6884	5.8699	-6.899	5.7858	0.333	0.333	0.333	0.333	0.333	0.333	0.333	0.333	0.333	0.333	0.333	0.333	0.333	0.333	0.333	0.333	0.333	0.333	0.333	6.327	1.6565	3.5752	19	2	0.646055573026095	1	0
"3"	19	8	1	-4	-4.3	0	7	-1	1	1.925	-2.149	-5.1964	2.8472	2.9571	-9.4026	-7.4655	-0.6992	-2.253	-6.3447	-6.812	-9.5611	-6.0987	-10.4245	-3.7604	4.6003	-5.605	4.9999	-9.9709	-3.8422	-10.3989	0.2428	0.3855	0.4969	0.2141	0.3356	0.2453	0.2192	0.4685	0.2004	0.3896	0.32	0.4517	0.3278	0.5238	0.3022	0.3463	0.2199	0.3002	0.3292	6.319	1.6282	3.5593	19	3	0.654925967739748	0	1
"4"	19	65	1	-2	-2.15	0	12	1	0	4.141	-3.8084	-12.0157	-4.7056	1.8809	1.1855	-8.3654	-4.4264	-0.4846	3.622	-1.4713	10.4217	-5.7841	-6.639	-6.8786	-0.1737	1.6612	-1.827	-0.8915	0.5082	-3.8572	0.4111	0.3213	0.2437	0.2994	0.4608	0.3281	0.2595	0.3747	0.4507	0.2344	0.3807	0.4517	0.2208	0.3068	0.2809	0.3494	0.2188	0.4351	0.3013	6.329	1.5866	5.7412	19	4	1.42093730456343	1	0
"5"	19	7	1	4	4.3	1	5	1	1	1.569	2.2477	6.3649	2.7916	0.0184	14.6034	-0.271	6.3769	-3.6911	9.6459	9.9981	2.7851	6.8446	-3.6913	7.8881	-2.1054	8.4622	5.1757	0.2428	4.9087	8.5756	0.333	0.333	0.333	0.333	0.333	0.333	0.333	0.333	0.333	0.333	0.333	0.333	0.333	0.333	0.333	0.333	0.333	0.333	0.333	6.327	1.4321	3.0035	19	5	0.450438473750896	1	0
"6"	19	37	1	-2	-2.15	0	4	-1	1	1.512	-4.8349	-0.521	-4.3526	-5.1045	4.3922	-6.2505	-1.1683	8.0943	-5.2716	3.9104	-5.6519	-2.6445	1.1634	-10.6527	-6.1357	2.7805	-0.3143	4.2007	-9.1235	-6.647	0.4196	0.5031	0.2283	0.4082	0.2046	0.2682	0.2983	0.3823	0.2603	0.3613	0.2923	0.3318	0.2968	0.5285	0.2162	0.2572	0.4545	0.2185	0.4053	6.335	1.669	3.1797	19	6	0.413433277757341	0	1
"7"	19	23	1	-2	-2.15	0	17	-1	1	5.707	-5.4932	-1.0304	3.63	-1.4262	-3.9407	0.4122	4.8058	3.4331	3.8373	-7.4802	-7.7884	-13.0967	5.4729	-6.1341	-2.4919	-5.317	1.582	-5.7373	-5.4675	-2.6041	0.2483	0.4653	0.3514	0.4739	0.3115	0.3594	0.3963	0.2148	0.2456	0.4294	0.2921	0.4059	0.2876	0.2528	0.422	0.3831	0.2591	0.2123	0.3078	6.3188	1.5415	7.2582	19	7	1.74169349155457	0	1
"8"	19	47	1	1	1.075	1	3	1	1	0.996	-0.0074	1.5936	5.7279	5.2305	4.233	-7.0148	1.6997	-0.047	3.1127	-0.9587	5.4412	-4.6375	10.4897	-4.6449	-5.1644	-7.1389	4.8893	6.6451	4.9764	-2.1723	0.333	0.333	0.333	0.333	0.333	0.333	0.333	0.333	0.333	0.333	0.333	0.333	0.333	0.333	0.333	0.333	0.333	0.333	0.333	6.327	1.4858	2.4804	19	8	-0.00400802139753882	1	0
"9"	19	66	1	-1	-1.075	0	11	-1	1	3.406	-2.0039	-3.2811	-6.5051	6.7159	-3.0835	2.8485	2.7294	-9.2403	0.1232	3.0638	-6.8065	-6.8429	-2.4061	7.1036	0.073	2.8935	5.1848	-8.096	0.9948	-4.1262	0.3628	0.2471	0.4164	0.2603	0.2003	0.2462	0.2918	0.3483	0.2119	0.3927	0.4962	0.2929	0.5215	0.2782	0.4143	0.5295	0.3154	0.2814	0.2193	6.3265	1.4846	4.9063	19	9	1.2255385822405	0	1
"10"	19	44	1	-2	-2.15	1	5	-1	1	1.66	-5.2947	3.2408	-0.564	-5.5042	-5.7705	0.2836	-4.2372	-2.1384	2.3396	-8.7616	7.532	-0.013	-4.632	-1.066	-10.3227	-1.5355	-1.1109	-0.602	5.9958	-11.6147	0.333	0.333	0.333	0.333	0.333	0.333	0.333	0.333	0.333	0.333	0.333	0.333	0.333	0.333	0.333	0.333	0.333	0.333	0.333	6.327	1.6675	3.3439	19	10	0.506817602368452	0	1
"11"	19	25	1	0	0	0	17	1	0	5.515	-1.8276	-0.2049	-6.4813	8.2868	-6.6453	8.9812	-0.6224	-1.4164	1.6821	-0.2161	-0.4745	0.603	1.4795	3.4801	-0.0168	-6.3001	-11.1726	1.8641	4.9054	3.2438	0.2971	0.2092	0.4968	0.2139	0.4063	0.2373	0.2906	0.3207	0.3951	0.5016	0.2141	0.2433	0.4691	0.237	0.4736	0.2227	0.3412	0.3128	0.4525	6.3348	1.5183	7.0489	19	11	1.70747165270547	1	0
"12"	19	56	1	4	4.3	0	6	1	1	2.003	0.4641	5.9189	4.051	13.1088	-2.6296	2.6385	-0.2381	-5.4674	3.1351	1.6452	12.4879	2.6082	5.5319	6.9893	6.6619	3.1496	11.9105	1.4218	0.0126	11.6255	0.4267	0.3123	0.2803	0.3734	0.4453	0.2418	0.3876	0.2183	0.4141	0.4992	0.2696	0.351	0.2713	0.3038	0.2272	0.2706	0.2216	0.4639	0.3509	6.3288	1.5203	3.5373	19	12	0.694646056683681	1	0
"13"	19	31	1	-1	-1.075	1	7	-1	1	2.089	0.0545	0.694	-6.1392	-2.1064	11.1314	-0.796	4.3091	2.8626	-4.5705	-3.6927	-1.0288	3.2041	-5.9786	4.7029	1.7121	0.6073	-4.9779	-6.4614	-8.3524	-6.4823	0.333	0.333	0.333	0.333	0.333	0.333	0.333	0.333	0.333	0.333	0.333	0.333	0.333	0.333	0.333	0.333	0.333	0.333	0.333	6.327	1.4569	3.5563	19	13	0.736685482574429	0	1
"14"	19	42	1	4	4.3	0	6	1	1	1.902	9.1346	3.3899	10.5965	4.4193	1.2168	7.4093	5.5421	6.1645	16.212	2.7622	7.9893	2.3986	-4.8696	8.1455	0.0422	-0.4084	6.2913	-2.8649	-1.9653	3.4635	0.2471	0.4164	0.3109	0.3598	0.3909	0.284	0.4451	0.2935	0.348	0.2438	0.279	0.2121	0.4912	0.3928	0.3445	0.2362	0.4707	0.234	0.321	6.3212	1.4503	3.3696	19	14	0.642905964123199	1	0
"15"	19	49	1	4	4.3	1	6	1	1	1.734	0.7088	1.2068	10.972	-2.0744	4.6548	-7.76	-0.2807	4.2893	1.8131	12.8459	1.7903	7.9172	4.6142	6.759	2.5644	3.5056	9.029	10.1203	2.8104	9.6627	0.333	0.333	0.333	0.333	0.333	0.333	0.333	0.333	0.333	0.333	0.333	0.333	0.333	0.333	0.333	0.333	0.333	0.333	0.333	6.327	1.5854	3.3348	19	15	0.55043087835835	1	0
"16"	19	70	1	4	4.3	0	8	1	1	2.436	8.4222	7.2017	0.2374	-3.5949	-0.2688	1.7576	5.7819	3.907	-3.4589	14.1557	6.0009	6.5456	7.7929	14.2337	1.6765	3.0645	3.608	-1.8643	5.3872	5.5109	0.4461	0.412	0.2176	0.2495	0.2054	0.466	0.3532	0.3861	0.2479	0.4848	0.388	0.5026	0.2253	0.3952	0.2257	0.3543	0.281	0.2044	0.2773	6.3223	1.6324	4.0697	19	16	0.890357349847651	1	0
"17"	19	12	1	1	1.075	0	5	-1	0	1.785	-3.6749	-1.7951	-3.4197	7.8034	2.0858	-0.2597	10.3813	1.1221	10.1056	-5.1419	-2.9462	2.1591	5.8415	-1.9694	-5.1345	-4.7358	-0.509	6.6636	0.2856	3.6747	0.3607	0.2999	0.5168	0.3803	0.336	0.4434	0.327	0.232	0.2833	0.2333	0.2757	0.3855	0.3041	0.2475	0.4103	0.3091	0.4629	0.3048	0.2201	6.3328	1.5268	3.3196	19	17	0.579418415231602	0	1
"18"	19	43	1	-4	-4.3	1	7	-1	1	2.292	-0.4471	0.8355	-3.2115	-6.5115	-7.1961	-8.2057	-7.1287	-3.2975	-5.3694	-3.5749	-8.5172	-7.4387	-2.1633	-5.6337	9.7858	-3.6146	-6.274	-4.4666	-15.9032	1.7345	0.333	0.333	0.333	0.333	0.333	0.333	0.333	0.333	0.333	0.333	0.333	0.333	0.333	0.333	0.333	0.333	0.333	0.333	0.333	6.327	1.71	4.0099	19	18	0.829424798852493	0	1
"19"	19	59	1	-1	-1.075	1	15	1	0	4.901	0.7166	-3.0744	-11.9481	7.5369	-6.3742	-4.4849	1.7564	-3.339	-6.4269	9.2641	-0.0785	0.9162	-1.1961	1.972	-4.1865	5.8516	-0.9997	-2.9754	-4.389	1.5979	0.333	0.333	0.333	0.333	0.333	0.333	0.333	0.333	0.333	0.333	0.333	0.333	0.333	0.333	0.333	0.333	0.333	0.333	0.333	6.327	1.6874	6.5857	19	19	1.58943926592741	1	0
"20"	19	50	1	-4	-4.3	0	4	-1	1	1.16	-4.9831	-5.5916	-6.9534	-9.5092	-11.6248	-1.7164	0.8422	-4.3242	-11.1035	5.1649	-4.7671	-3.8261	-8.8134	0.567	-2.5981	-8.7573	5.6989	-0.3685	-9.5167	-3.2046	0.3921	0.3365	0.4024	0.2318	0.356	0.2901	0.2292	0.3603	0.2914	0.2367	0.4202	0.5141	0.2151	0.3953	0.4744	0.2084	0.2589	0.3842	0.3322	6.3296	1.5252	2.6941	19	20	0.148420005118273	0	1
"21"	19	27	1	2	2.15	0	8	1	1	2.149	1.788	-9.4683	2.8108	6.0126	2.7557	3.7368	0.5869	12.0989	4.5659	-1.6576	0.8261	-3.1388	-2.1749	11.6784	-0.758	4.8445	4.6085	3.4378	-2.0946	1.0475	0.2418	0.2677	0.3355	0.2594	0.2043	0.2765	0.3416	0.5126	0.3034	0.2024	0.3822	0.4146	0.4731	0.5279	0.2251	0.3505	0.254	0.4617	0.3023	6.3367	1.6375	3.7996	19	21	0.765002617660373	1	0
"22"	19	1	1	-4	-4.3	1	8	1	0	2.555	-3.3601	-3.2697	-7.4421	3.2066	-2.9459	-1.1089	1.614	-14.5887	1.1155	-2.043	-7.8367	-9.989	-3.3822	-6.2246	-13.0996	-1.6097	2.1535	-6.1675	-2.4411	-9.6486	0.333	0.333	0.333	0.333	0.333	0.333	0.333	0.333	0.333	0.333	0.333	0.333	0.333	0.333	0.333	0.333	0.333	0.333	0.333	6.327	1.5403	4.1055	19	22	0.938052223655668	1	0
"23"	19	52	1	-1	-1.075	0	17	1	0	5.433	-1.5855	-4.25	-3.8775	-3.3963	-3.0188	-4.4015	8.1836	0.826	-3.5747	-8.5877	-2.5403	2.0797	-8.9901	-6.0172	5.0223	5.1957	-4.2476	3.6586	0.8712	6.8601	0.2748	0.3544	0.2907	0.2315	0.3708	0.2292	0.2758	0.5073	0.2767	0.4822	0.4042	0.2462	0.2145	0.5168	0.2421	0.4179	0.2796	0.4965	0.2058	6.3171	1.5627	7.0166	19	23	1.69249146756939	1	0
"24"	19	20	1	2	2.15	1	13	1	1	4.153	2.5537	-0.9312	7.2037	1.8831	-4.219	10.2075	11.0554	5.67	-7.5578	0.2547	-0.284	-0.3615	5.8298	3.2298	0.6818	1.9899	4.1245	-3.8034	7.6702	-3.9972	0.333	0.333	0.333	0.333	0.333	0.333	0.333	0.333	0.333	0.333	0.333	0.333	0.333	0.333	0.333	0.333	0.333	0.333	0.333	6.327	1.6277	5.7867	19	24	1.42383096464862	1	0
"25"	19	64	1	-4	-4.3	0	7	-1	1	2.162	-8.8019	-5.659	-5.3002	1.8453	-3.0282	-7.9759	-2.2703	0.2379	-3.5061	-11.3579	-6.7333	1.3261	-5.152	-1.8464	-12.1121	-3.7994	6.3292	-8.5371	2.4076	-12.0528	0.2182	0.5131	0.2679	0.4686	0.2901	0.3359	0.2634	0.4243	0.2083	0.4449	0.227	0.3391	0.2684	0.2015	0.2398	0.4652	0.3534	0.2731	0.5193	6.3215	1.4957	3.6629	19	25	0.771033719217016	0	1
"26"	19	46	1	0	0	1	20	-1	1	6.478	3.1456	-6.6708	-0.2041	2.3292	1.0897	12.8869	-4.3531	5.3147	0.1607	0.3228	3.8573	-4.2175	-7.0886	-10.6378	-1.2348	-0.543	4.3951	1.4312	0.3644	-0.1438	0.333	0.333	0.333	0.333	0.333	0.333	0.333	0.333	0.333	0.333	0.333	0.333	0.333	0.333	0.333	0.333	0.333	0.333	0.333	6.327	1.6812	8.1619	19	26	1.86841182074914	0	1
"27"	19	39	1	0	0	0	16	1	1	4.985	4.3747	6.4664	1.0552	3.6112	-3.7314	-6.9335	-0.2126	5.8279	6.1434	-9.2413	-6.6168	0.9349	6.2001	-1.6398	1.7824	-3.5954	-5.059	2.2272	-5.3829	3.4607	0.3993	0.2001	0.3202	0.2676	0.4242	0.4879	0.3909	0.2714	0.3705	0.2501	0.3057	0.2181	0.3751	0.2721	0.3916	0.2655	0.3468	0.2455	0.5263	6.3288	1.4198	6.4025	19	27	1.6064334034138	1	0
"28"	19	67	1	0	0	0	7	1	1	2.081	-3.2542	6.8035	-5.8001	-0.6987	7.4786	-6.0255	6.7471	-4.4347	1.3921	3.2871	0.7534	3.0404	0.9628	-1.9525	-11.3952	-3.1471	5.5588	-4.7511	4.8341	-0.4286	0.3864	0.2083	0.2631	0.479	0.2348	0.2721	0.3106	0.434	0.3466	0.2352	0.318	0.2607	0.4225	0.2122	0.3781	0.4468	0.3416	0.2572	0.5276	6.3349	1.5088	3.5984	19	28	0.732848547411497	1	0
"29"	19	13	1	2	2.15	0	4	1	1	1.212	-0.8194	2.999	5.366	-4.069	-0.8212	8.7016	6.1306	-2.2032	-2.7043	-1.1599	-4.1132	3.1453	-1.8211	0.4602	12.327	6.457	1.0298	4.4134	-0.3368	11.4135	0.3991	0.3651	0.2998	0.2612	0.3434	0.268	0.2945	0.5029	0.3109	0.3641	0.2653	0.2333	0.2587	0.4085	0.2241	0.324	0.3688	0.3151	0.5212	6.3281	1.6275	2.8462	19	29	0.192271887647123	1	0
"30"	19	58	1	-2	-2.15	1	19	-1	1	6.068	-1.1411	-1.3694	-4.383	-12.0535	-2.1289	4.4008	1.9053	2.8799	-8.4104	5.5502	4.6667	-0.6669	-3.7033	0.3003	-0.722	-10.8189	-8.0861	-2.6814	1.1106	-6.6821	0.333	0.333	0.333	0.333	0.333	0.333	0.333	0.333	0.333	0.333	0.333	0.333	0.333	0.333	0.333	0.333	0.333	0.333	0.333	6.327	1.7012	7.7857	19	30	1.80302906148629	0	1
"31"	19	53	1	0	0	0	11	1	0	3.71	-4.1222	7.2633	1.743	-11.2072	-1.5591	9.2153	4.6854	3.3244	-3.4424	2.0876	3.3627	-7.6873	0.263	-0.3816	2.8362	-1.1995	-0.4199	2.2357	-6.7255	-1.8244	0.3478	0.5189	0.2508	0.2152	0.2503	0.456	0.2641	0.3829	0.3556	0.2083	0.531	0.2217	0.4627	0.3813	0.4194	0.2099	0.3005	0.2419	0.3179	6.3363	1.548	5.2771	19	31	1.31103187661934	1	0
"32"	19	29	1	-4	-4.3	1	6	-1	1	1.696	-7.2433	-7.4428	-7.2822	-4.2301	-10.7283	2.412	-1.8399	4.1897	-9.1221	-4.0183	-8.0223	8.0037	-2.5115	-6.4662	-3.0214	-0.1837	-4.9028	-9.4283	-11.5382	-4.0483	0.333	0.333	0.333	0.333	0.333	0.333	0.333	0.333	0.333	0.333	0.333	0.333	0.333	0.333	0.333	0.333	0.333	0.333	0.333	6.327	1.5088	3.2137	19	32	0.528272537369711	0	1
"33"	19	14	1	4	4.3	0	6	1	1	2.045	4.1703	0.7962	4.4654	7.3262	3.8772	14.5406	7.7446	1.302	-0.3104	6.8443	0.4707	9.6037	2.642	-2.1209	3.7563	7.253	5.0996	-2.629	-4.2083	14.0403	0.497	0.3162	0.2144	0.3023	0.4161	0.3624	0.2928	0.3245	0.2264	0.333	0.2738	0.387	0.4849	0.234	0.3148	0.2201	0.3812	0.4602	0.2939	6.335	1.7038	3.762	19	33	0.715397789494765	1	0
"34"	19	9	1	-2	-2.15	0	5	-1	1	1.303	-6.3374	-0.8235	-0.7801	0.4483	-0.4774	-3.2138	-7.5418	-2.0876	-5.7127	-7.5849	-1.4748	12.6415	-4.7835	-1.9442	4.2314	1.1795	-2.8646	-12.085	-1.1031	-2.7478	0.2452	0.2128	0.5241	0.2736	0.332	0.2708	0.4324	0.2169	0.4707	0.3483	0.2673	0.2241	0.4934	0.3467	0.2097	0.4255	0.3407	0.4319	0.2604	6.3264	1.4112	2.7203	19	34	0.264669298142708	0	1
"35"	19	18	1	0	0	1	5	-1	1	1.363	-4.9418	-5.6929	2.4884	11.1514	-4.9244	-0.4067	1.2569	-6.8394	2.1696	5.9761	5.4744	-4.1649	7.1037	2.7593	-5.5164	-5.3012	-1.5653	2.2733	-0.6058	-0.4633	0.333	0.333	0.333	0.333	0.333	0.333	0.333	0.333	0.333	0.333	0.333	0.333	0.333	0.333	0.333	0.333	0.333	0.333	0.333	6.327	1.4884	2.8634	19	35	0.309688152714396	0	1
"36"	19	3	1	-1	-1.075	1	8	-1	1	2.339	-2.4285	3.2111	-7.8475	-13.5837	1.0586	3.6893	2.8984	-1.384	-6.2982	5.4808	4.9806	1.7997	0.3038	1.7424	-1.2085	4.1984	-2.6367	-2.5323	-3.5959	-8.3004	0.333	0.333	0.333	0.333	0.333	0.333	0.333	0.333	0.333	0.333	0.333	0.333	0.333	0.333	0.333	0.333	0.333	0.333	0.333	6.327	1.4398	3.7896	19	36	0.849723487602042	0	1
"37"	19	36	1	-4	-4.3	0	5	-1	1	1.656	0.3094	-2.6168	-3.2779	-4.3736	0.7001	-1.5379	-8.8847	2.8947	-8.7303	-8.1153	-4.8347	3.0012	-4.7679	-14.1601	-8.7398	-7.3955	-4.7595	4.2759	-3.6391	-10.9294	0.3505	0.2839	0.326	0.272	0.4768	0.423	0.3656	0.2851	0.2075	0.2889	0.392	0.3669	0.4543	0.244	0.3209	0.3738	0.4019	0.26	0.2323	6.3251	1.4084	3.0737	19	37	0.504405055963068	0	1
"38"	19	57	1	-4	-4.3	1	4	-1	1	1.258	-4.8202	-3.1203	-1.3207	-11.4849	-1.0795	-2.4846	-8.2309	6.6747	-6.7017	-3.9168	1.7942	-1.956	-10.9521	-5.138	-14.1934	-3.028	-7.5411	-1.2377	1.6633	-7.3742	0.333	0.333	0.333	0.333	0.333	0.333	0.333	0.333	0.333	0.333	0.333	0.333	0.333	0.333	0.333	0.333	0.333	0.333	0.333	6.327	1.5907	2.8587	19	38	0.229523158278249	0	1
"39"	19	30	1	-2	-2.15	1	4	-1	1	1.03	-6.5136	-3.0007	-8.1777	-5.6733	2.0374	-8.6826	-2.1514	5.0746	-3.5055	-5.7007	1.7476	-4.0301	2.9176	-11.8126	0.6263	1.57	3.2174	-8.0863	5.0284	0.2206	0.333	0.333	0.333	0.333	0.333	0.333	0.333	0.333	0.333	0.333	0.333	0.333	0.333	0.333	0.333	0.333	0.333	0.333	0.333	6.327	1.6608	2.6974	19	39	0.0295588022415444	0	1
"40"	19	54	1	1	1.075	0	11	1	1	3.82	5.2256	-2.1998	2.1372	2.8517	4.6159	7.8233	6.4994	2.4085	-6.7879	6.6101	-0.1871	-6.9555	-2.0241	-4.5036	-0.3963	-3.2759	9.15	4.2791	-6.9503	4.4767	0.4627	0.3809	0.2061	0.5172	0.422	0.5158	0.2905	0.265	0.3134	0.2223	0.3309	0.2464	0.29	0.4953	0.2726	0.2146	0.2768	0.2416	0.3696	6.3337	1.575	5.4036	19	40	1.34025042261848	1	0
"41"	19	48	1	2	2.15	1	5	1	1	1.527	2.1938	4.0121	11.9409	8.5549	2.022	-1.6821	0.0291	4.1131	1.0309	-0.4991	9.7286	-5.1369	-0.1705	-1.0128	-1.073	4.9579	-3.5194	9.8426	3.0397	-5.7706	0.333	0.333	0.333	0.333	0.333	0.333	0.333	0.333	0.333	0.333	0.333	0.333	0.333	0.333	0.333	0.333	0.333	0.333	0.333	6.327	1.6343	3.1608	19	41	0.423305026236495	1	0
"42"	19	55	1	2	2.15	0	7	1	1	2.225	4.8603	-3.8103	-1.1335	3.406	3.5596	-2.8167	-0.4182	2.1955	1.3198	3.3913	12.0788	7.5533	2.8225	2.223	6.8179	0.0199	3.8165	8.4592	1.2008	-11.4257	0.254	0.4168	0.2456	0.3086	0.4394	0.2684	0.3209	0.3868	0.2921	0.4933	0.2855	0.3486	0.2223	0.3323	0.3666	0.2395	0.5077	0.2545	0.3429	6.3257	1.439	3.659	19	42	0.799756915618204	1	0
"43"	19	35	1	4	4.3	1	10	1	1	3.171	7.4995	1.06	4.9452	5.9096	3.5654	-4.9048	9.2362	-1.0855	5.8748	7.9271	8.8968	0.5964	6.5159	4.209	0.0716	-5.7102	15.59	9.0211	2.7728	4.9915	0.333	0.333	0.333	0.333	0.333	0.333	0.333	0.333	0.333	0.333	0.333	0.333	0.333	0.333	0.333	0.333	0.333	0.333	0.333	6.327	1.6276	4.8214	19	43	1.15404699555621	1	0
"44"	19	19	1	1	1.075	1	10	1	1	3.247	-2.8534	15.0136	6.3198	2.2743	-0.5498	2.4877	-0.4105	-2.536	-1.4916	3.2078	-8.6173	-1.5744	-1.9696	0.0877	10.4015	-0.1627	2.6044	0.0892	-0.9845	0.358	0.333	0.333	0.333	0.333	0.333	0.333	0.333	0.333	0.333	0.333	0.333	0.333	0.333	0.333	0.333	0.333	0.333	0.333	0.333	6.327	1.4529	4.714	19	44	1.17773149312071	1	0
"45"	19	33	1	1	1.075	1	12	1	1	3.753	6.005	-9.1264	0.666	1.1356	-5.5281	1.6804	9.9835	5.9544	-1.6858	4.6539	-4.0543	10.1127	-2.8179	-0.6337	-2.1719	3.9523	-0.8135	1.4523	-2.3494	4.973	0.333	0.333	0.333	0.333	0.333	0.333	0.333	0.333	0.333	0.333	0.333	0.333	0.333	0.333	0.333	0.333	0.333	0.333	0.333	6.327	1.5437	5.3035	19	45	1.32255552015288	1	0
"46"	19	24	1	-1	-1.075	0	5	-1	1	1.44	-2.5182	-6.7031	0.9804	-8.7811	0.5394	2.7567	-3.6901	-0.821	-7.099	-2.021	-4.8163	3.8482	-6.9939	4.7518	-3.5653	11.1154	-4.5654	0.4373	6.3827	-1.8253	0.4592	0.2425	0.3779	0.2479	0.2861	0.5184	0.2678	0.4026	0.2128	0.2768	0.3775	0.2164	0.3004	0.4093	0.2175	0.3998	0.522	0.2732	0.3092	6.3174	1.4692	2.9242	19	46	0.364643113587909	0	1
"47"	19	26	1	1	1.075	0	3	-1	0	0.695	-1.1247	-2.0501	-1.7494	8.9004	-3.8561	-8.1539	2.1621	4.7085	7.5837	-2.2512	4.5997	1.8528	-7.1114	6.8824	-2.6973	-1.2915	0.9494	4.0832	2.9095	8.4096	0.2066	0.3688	0.2007	0.3528	0.4012	0.3314	0.2347	0.4788	0.3233	0.2575	0.458	0.3944	0.2985	0.23	0.3275	0.2401	0.375	0.335	0.5147	6.329	1.67	2.3791	19	47	-0.363843433417345	0	1
"48"	19	41	1	2	2.15	0	7	1	1	2.118	1.2535	-0.4222	-1.3731	-0.1628	-2.5178	2.1417	-4.9664	11.209	-4.3229	7.7055	-3.8003	11.6317	-2.2637	7.9337	4.9403	7.1495	2.0287	6.141	-0.3375	1.9162	0.3846	0.3558	0.3141	0.2069	0.3825	0.343	0.4249	0.2765	0.2334	0.3103	0.2562	0.5303	0.3354	0.2989	0.253	0.4841	0.3521	0.3253	0.2616	6.3289	1.4047	3.5355	19	48	0.750472247179215	1	0
"49"	19	6	1	2	2.15	1	4	1	1	1.251	4.7096	3.4272	-2.005	8.9555	-1.7872	4.0942	3.0914	-4.0961	11.0784	-5.6574	-0.9149	1.8395	0.9268	-6.901	0.825	3.9958	5.0587	1.0046	4.7822	11.2966	0.333	0.333	0.333	0.333	0.333	0.333	0.333	0.333	0.333	0.333	0.333	0.333	0.333	0.333	0.333	0.333	0.333	0.333	0.333	6.327	1.6967	2.9519	19	49	0.223943231484774	1	0
"50"	19	28	1	4	4.3	0	5	1	1	1.456	4.3936	-2.2198	-3.2843	11.9824	-0.8036	5.2445	4.172	4.554	5.5267	9.1327	1.5529	10.0449	-7.1254	10.6413	10.7765	6.478	0.737	3.762	6.8791	3.1296	0.395	0.2996	0.2434	0.5129	0.2204	0.3818	0.4421	0.2728	0.4171	0.2201	0.276	0.3247	0.2436	0.2049	0.4405	0.3681	0.2266	0.4451	0.3847	6.3194	1.5373	3.0063	19	50	0.375692949774494	1	0
"51"	19	16	1	-2	-2.15	1	14	1	0	4.474	-3.1729	-8.156	5.8457	-8.6697	-2.7162	4.1195	-3.0519	-1.7381	-5.797	-0.2857	-6.498	-4.4902	7.8482	-5.8685	-3.238	-3.4721	-5.3861	8.6527	-4.8209	-2.6878	0.333	0.333	0.333	0.333	0.333	0.333	0.333	0.333	0.333	0.333	0.333	0.333	0.333	0.333	0.333	0.333	0.333	0.333	0.333	6.327	1.5757	6.0578	19	51	1.49828286306794	1	0
"52"	19	51	1	-2	-2.15	0	19	-1	1	6.209	1.1981	-1.9224	3.1315	-13.1337	-10.4316	4.0665	2.6896	-7.254	-4.2561	2.8589	-5.4937	-3.2206	-1.5715	2.6213	-7.6285	-5.3131	1.6115	2.9832	-2.0437	-2.0789	0.4333	0.4785	0.3036	0.2052	0.4106	0.2128	0.3427	0.3888	0.434	0.3079	0.246	0.2974	0.4284	0.2968	0.4088	0.2389	0.3181	0.368	0.2112	6.3308	1.6477	7.8597	19	52	1.82599985238276	0	1
"53"	19	5	1	1	1.075	1	11	-1	0	3.465	-2.2868	9.0439	2.463	0.1036	-8.6956	2.6171	8.521	-4.2296	4.9187	-6.1111	-0.9244	3.3629	1.6676	5.5082	2.2891	-4.622	8.8264	1.4345	-3.8568	1.122	0.333	0.333	0.333	0.333	0.333	0.333	0.333	0.333	0.333	0.333	0.333	0.333	0.333	0.333	0.333	0.333	0.333	0.333	0.333	6.327	1.44	4.8992	19	53	1.24271263264187	0	1
"54"	19	60	1	0	0	1	8	1	1	2.598	-3.0217	3.1802	3.1665	-10.0415	0.9231	-3.391	-4.2817	8.1494	7.3643	-1.9348	2.2675	-8.439	-4.5668	3.0726	6.5607	-4.735	2.8118	4.5954	-1.0141	1.2698	0.333	0.333	0.333	0.333	0.333	0.333	0.333	0.333	0.333	0.333	0.333	0.333	0.333	0.333	0.333	0.333	0.333	0.333	0.333	6.327	1.605	4.215	19	54	0.954741918248408	1	0
"55"	19	21	1	4	4.3	1	10	1	1	3.261	1.5665	3.0131	-4.2056	0.062	10.1854	4.7359	3.0746	6.0515	5.4468	0.6693	3.461	10.6816	13.4254	11.5894	-2.578	6.3328	0.54	-3.7863	9.2773	4.5631	0.333	0.333	0.333	0.333	0.333	0.333	0.333	0.333	0.333	0.333	0.333	0.333	0.333	0.333	0.333	0.333	0.333	0.333	0.333	6.327	1.5098	4.7783	19	55	1.18203389680718	1	0
"56"	19	68	1	1	1.075	0	4	1	1	1.005	5.7859	4.061	2.605	3.5849	6.2703	-2.9258	-2.7022	0.856	3.5305	-3.5494	-7.2018	-1.839	7.6268	3.2438	4.1689	5.8984	-9.8481	5.6249	2.7281	-6.5324	0.2569	0.3268	0.2378	0.3036	0.2611	0.5169	0.3968	0.3091	0.2013	0.3882	0.244	0.4981	0.2723	0.3683	0.222	0.427	0.3684	0.3152	0.4193	6.3329	1.5506	2.5722	19	56	0.00498754151103897	1	0
"57"	19	17	1	-1	-1.075	1	4	-1	1	1.12	-2.7196	-7.1121	-5.5029	0.5823	-8.1097	-3.3026	4.6773	-7.243	-4.9751	-11.9483	3.3478	3.0607	4.1969	0.6602	0.7262	4.3824	3.6621	2.671	-1.7697	2.4604	0.333	0.333	0.333	0.333	0.333	0.333	0.333	0.333	0.333	0.333	0.333	0.333	0.333	0.333	0.333	0.333	0.333	0.333	0.333	6.327	1.5097	2.6378	19	57	0.113328685307003	0	1
"58"	19	34	1	2	2.15	1	4	-1	0	1.24	-0.8385	1.3746	-5.2588	7.9766	0.9478	-3.4445	-2.4639	4.3827	2.4812	2.5444	-1.3217	2.7547	-0.2772	11.6939	-7.6369	8.9072	3.5274	1.9584	7.8767	6.8294	0.333	0.333	0.333	0.333	0.333	0.333	0.333	0.333	0.333	0.333	0.333	0.333	0.333	0.333	0.333	0.333	0.333	0.333	0.333	6.327	1.4371	2.6903	19	58	0.215111379616945	0	1
"59"	19	32	1	0	0	1	13	1	1	4.06	-0.0847	-3.5208	3.5111	-7.1808	-4.6155	3.5159	0.6479	0.7968	0.2976	3.2211	2.9068	2.1246	11.6306	-5.5698	-3.1213	5.5321	3.5906	-1.5386	-3.7548	-9.6045	0.333	0.333	0.333	0.333	0.333	0.333	0.333	0.333	0.333	0.333	0.333	0.333	0.333	0.333	0.333	0.333	0.333	0.333	0.333	6.327	1.6864	5.7609	19	59	1.40118297361364	1	0
"60"	19	69	1	2	2.15	0	4	1	1	1.153	3.4263	3.0596	4.2553	1.8596	-0.3596	6.2429	-6.7752	7.3142	8.4538	7.7824	-0.4571	8.2861	8.9664	-5.1109	1.6316	-4.0763	-3.2047	-3.075	-0.3812	4.8989	0.3836	0.2289	0.3986	0.3468	0.2261	0.3513	0.3155	0.2478	0.2021	0.4803	0.3916	0.259	0.5082	0.3687	0.2694	0.3018	0.4631	0.2533	0.3383	6.3345	1.4674	2.6202	19	60	0.142367241286922	1	0
"61"	19	45	1	-1	-1.075	1	18	1	0	5.954	-3.4712	0.2338	-1.7039	6.8134	-5.1508	-5.7832	3.464	5.5226	-9.0869	-5.301	0.8917	0.8129	-10.4627	-1.1199	2.5217	3.9507	1.247	1.0381	1.1445	-8.3509	0.333	0.333	0.333	0.333	0.333	0.333	0.333	0.333	0.333	0.333	0.333	0.333	0.333	0.333	0.333	0.333	0.333	0.333	0.333	6.327	1.5603	7.5211	19	61	1.78406326259358	1	0
"62"	19	22	1	-4	-4.3	0	10	-1	1	3.06	-4.5467	4.3821	-6.435	-3.5269	-1.2891	-8.551	-4.5249	-8.0788	-7.6394	0.2829	-9.6995	-3.2981	-3.2184	-3.184	-4.2026	-2.1246	-1.209	0.201	-18.7959	1.0937	0.27	0.3702	0.2247	0.2786	0.2329	0.4298	0.344	0.4312	0.352	0.2362	0.4083	0.3562	0.2037	0.4952	0.2498	0.2148	0.4903	0.5201	0.2291	6.3369	1.4847	4.5442	19	62	1.11841491596429	0	1
"63"	19	4	1	0	0	1	12	-1	1	3.681	4.4363	-8.7025	-2.589	-3.6916	-0.9936	3.6493	-2.8143	6.4942	1.8727	-0.9156	1.9104	-8.6877	3.8968	-1.932	9.5911	-5.7772	5.0209	-0.5361	2.553	-4.5325	0.333	0.333	0.333	0.333	0.333	0.333	0.333	0.333	0.333	0.333	0.333	0.333	0.333	0.333	0.333	0.333	0.333	0.333	0.333	6.327	1.6961	5.3816	19	63	1.30318445439688	0	1
"64"	19	11	1	0	0	0	7	-1	1	2.29	3.5555	-4.8755	2.5804	-0.3852	-3.7583	-5.3509	-1.4075	-2.6971	-10.2658	1.2735	4.4788	-5.6256	6.3587	-0.4866	0.9653	11.8277	-2.1171	6.4668	-0.5015	-0.1425	0.2087	0.3174	0.3535	0.2754	0.3925	0.4736	0.3004	0.4767	0.2069	0.2959	0.4145	0.2176	0.2658	0.212	0.2829	0.2394	0.4984	0.4101	0.4795	6.3213	1.4756	3.7742	19	64	0.828551817566148	0	1
"65"	19	10	1	-1	-1.075	0	5	-1	1	1.369	-0.4971	4.7705	-0.0764	-14.794	-2.5134	5.0715	1.9324	-0.3095	-1.8435	-2.558	-6.3935	-7.4513	2.6652	-7.7859	-0.2015	6.6454	0.3282	1.4102	2.0847	-1.5139	0.3129	0.2085	0.5036	0.214	0.2991	0.2092	0.2432	0.3036	0.3488	0.5056	0.4088	0.4693	0.2284	0.2822	0.2403	0.4517	0.4951	0.3846	0.2185	6.3273	1.562	2.953	19	65	0.314080546306312	0	1
"66"	19	63	1	4	4.3	1	11	1	1	3.55	1.6633	1.2177	0.1057	1.782	2.7645	11.6482	6.7295	8.1238	7.5504	1.715	7.7149	6.6295	0.9929	9.5794	2.3902	-6.737	0.6383	7.2153	15.2598	0.4888	0.333	0.333	0.333	0.333	0.333	0.333	0.333	0.333	0.333	0.333	0.333	0.333	0.333	0.333	0.333	0.333	0.333	0.333	0.333	6.327	1.4125	4.984	19	66	1.26694760348732	1	0
"67"	19	15	1	-4	-4.3	1	6	-1	1	1.816	-6.1414	-9.482	0.9978	-4.2233	-5.109	-1.5004	-4.3409	6.6205	-7.6627	2.2502	-4.926	-7.5144	-10.8467	-5.8245	-1.7802	-8.6701	3.4571	-10.5739	-0.0537	-8.9246	0.333	0.333	0.333	0.333	0.333	0.333	0.333	0.333	0.333	0.333	0.333	0.333	0.333	0.333	0.333	0.333	0.333	0.333	0.333	6.327	1.4524	3.2829	19	67	0.596636280179102	0	1
"68"	19	38	1	-1	-1.075	0	11	-1	1	3.606	-3.9931	2.6607	-1.6516	10.7	-7.7384	-3.7647	-2.2241	4.2942	-1.8873	0.2595	-7.2225	-4.1756	3.565	-11.845	-2.9642	0.1985	4.8763	3.0118	-1.7414	-1.1828	0.3726	0.4653	0.3917	0.3404	0.3858	0.2051	0.4118	0.3832	0.2309	0.3882	0.3278	0.2404	0.5022	0.2249	0.3135	0.2104	0.2749	0.3064	0.3484	6.3239	1.7305	5.3405	19	68	1.28259912478113	0	1
"69"	19	2	1	-2	-2.15	1	4	-1	1	1.15	-5.6436	-2.9069	-1.7568	-0.8016	7.0208	-6.1675	-6.2901	0.7082	-11.6512	1.1423	-8.6802	-10.0085	-4.2863	1.9519	0.7701	4.4192	-4.9784	1.2746	0.7262	2.8962	0.333	0.333	0.333	0.333	0.333	0.333	0.333	0.333	0.333	0.333	0.333	0.333	0.333	0.333	0.333	0.333	0.333	0.333	0.333	6.327	1.686	2.8507	19	69	0.139761942375159	0	1
"70"	19	61	1	1	1.075	1	14	1	1	4.544	-1.9418	7.1265	0.342	0.4495	-4.2814	2.8599	9.7443	10.3809	5.7388	1.745	-3.2708	3.1154	3.5155	-4.7276	-2.1502	-6.0087	-7.0657	-1.1867	4.2775	3.9125	0.333	0.333	0.333	0.333	0.333	0.333	0.333	0.333	0.333	0.333	0.333	0.333	0.333	0.333	0.333	0.333	0.333	0.333	0.333	6.327	1.4342	5.9946	19	70	1.51380768141885	1	0
"71"	19	65	2	-2	-2.15	0	3	1	0	0.789	0.6691	1.2141	-2.9015	-1.0883	-4.5066	1.888	-1.4358	-2.5605	-3.2593	-4.0119	-15.4334	5.4003	2.2536	-8.9106	1.5497	-5.1203	2.6835	-10.3407	-0.7904	2.8416	0.2074	0.4439	0.5132	0.2097	0.3661	0.2141	0.3785	0.3212	0.3913	0.216	0.476	0.4375	0.335	0.2954	0.204	0.3376	0.4078	0.2164	0.3473	6.3183	1.693	2.4901	19	71	-0.236988958136263	1	0
"72"	19	18	2	0	0	1	14	1	0	4.596	2.2557	-7.9883	11.3736	0.3685	5.6177	-0.7597	-8.4973	-0.0781	0.0412	5.1333	-0.135	1.634	4.5309	-3.5617	-2.1859	3.2047	-4.4466	-1.288	-7.2084	3.3963	0.333	0.333	0.333	0.333	0.333	0.333	0.333	0.333	0.333	0.333	0.333	0.333	0.333	0.333	0.333	0.333	0.333	0.333	0.333	6.327	1.6896	6.2802	19	72	1.52518635998651	1	0
"73"	19	34	2	2	2.15	1	12	1	1	3.891	1.3936	7.4543	-0.6905	9.9032	-2.1066	1.0116	2.2636	2.1602	0.4395	0.5523	12.9404	4.5096	-2.9633	-4.0126	5.4661	-1.2297	-5.0711	1.3373	12.0314	-0.5765	0.333	0.333	0.333	0.333	0.333	0.333	0.333	0.333	0.333	0.333	0.333	0.333	0.333	0.333	0.333	0.333	0.333	0.333	0.333	6.327	1.6842	5.5922	19	73	1.35866619400242	1	0
"74"	19	30	2	-2	-2.15	1	16	-1	1	5.171	-2.2669	-9.4406	-8.7998	4.5069	-0.9832	5.9935	0.7787	-7.7397	0.8522	3.4329	-1.3942	2.3944	-4.5215	2.4479	-7.2577	-0.8446	-5.5692	-2.0472	-10.9146	-0.4876	0.333	0.333	0.333	0.333	0.333	0.333	0.333	0.333	0.333	0.333	0.333	0.333	0.333	0.333	0.333	0.333	0.333	0.333	0.333	6.327	1.7212	6.9051	19	74	1.64306609341408	0	1
"75"	19	42	2	4	4.3	0	8	1	1	2.695	6.1266	8.844	2.7693	1.7363	-1.8147	6.604	5.4789	7.7583	4.2335	3.1671	3.4154	-2.64	8.8734	13.2683	-1.5223	6.1119	6.2956	13.5686	-6.3439	1.8261	0.2354	0.3089	0.337	0.2519	0.5057	0.3995	0.2711	0.4738	0.2678	0.4638	0.3252	0.2522	0.5076	0.3066	0.2011	0.3814	0.2939	0.2174	0.3359	6.3361	1.5504	4.2623	19	75	0.99139820436096	1	0
"76"	19	2	2	-2	-2.15	1	14	1	0	4.366	1.0253	-3.4343	0.7806	-4.9727	-15.3059	-7.3527	-0.2859	2.0549	-9.3872	-1.6875	-3.33	-1.7343	-5.3756	1.2262	2.5555	7.9582	3.4671	-2.2379	-5.5973	-1.7559	0.333	0.333	0.333	0.333	0.333	0.333	0.333	0.333	0.333	0.333	0.333	0.333	0.333	0.333	0.333	0.333	0.333	0.333	0.333	6.327	1.5338	5.9172	19	76	1.47384725812775	1	0
"77"	19	10	2	-1	-1.075	0	12	-1	1	3.776	-2.906	-4.3759	0.4688	0.825	1.1991	-0.9865	-7.0201	1.643	2.365	-8.6192	5.5673	-8.3005	2.7771	-7.3908	-0.7923	-5.5308	-7.2086	9.3	4.1473	1.4994	0.3659	0.2008	0.378	0.3174	0.2228	0.3875	0.2257	0.3897	0.4947	0.2625	0.3551	0.3212	0.2781	0.4405	0.3838	0.2512	0.3938	0.2921	0.3675	6.3282	1.5585	5.3437	19	77	1.32866524828325	0	1
"78"	19	25	2	0	0	0	4	-1	1	1.106	-4.5891	-3.2282	-0.8599	-11.522	3.8533	-0.1097	-4.5611	0.2971	0.2064	0.918	-0.8064	-1.2457	-0.8723	-2.1491	3.822	10.25	-6.6065	5.8014	7.5041	3.4982	0.2796	0.2028	0.2934	0.4939	0.3015	0.2098	0.3129	0.3737	0.2288	0.3611	0.2062	0.3719	0.46	0.3339	0.4591	0.348	0.4188	0.2514	0.4287	6.3354	1.4472	2.5569	19	78	0.100749903100143	0	1
"79"	19	62	2	2	2.15	1	15	-1	0	4.663	-1.6329	0.5893	13.6207	-0.7887	-3.273	-1.4812	3.7138	6.0356	-3.9375	6.4445	0.1659	9.9346	5.9583	0.0893	5.7229	0.7673	5.2635	-1.2111	4.4262	-7.0765	0.333	0.333	0.333	0.333	0.333	0.333	0.333	0.333	0.333	0.333	0.333	0.333	0.333	0.333	0.333	0.333	0.333	0.333	0.333	6.327	1.64	6.3143	19	79	1.53965901782618	0	1
"80"	19	43	2	-4	-4.3	1	8	-1	1	2.46	-1.2788	-7.6569	-7.8309	-8.4715	-5.6099	-10.0661	-10.5173	0.3611	-1.9041	-11.1148	3.1599	-11.4056	-5.1338	4.2288	-0.2263	3.182	-3.9682	-5.8586	-1.0172	-3.9786	0.333	0.333	0.333	0.333	0.333	0.333	0.333	0.333	0.333	0.333	0.333	0.333	0.333	0.333	0.333	0.333	0.333	0.333	0.333	6.327	1.4561	3.9275	19	80	0.900161349944271	0	1
"81"	19	22	2	-4	-4.3	0	11	-1	1	3.361	-1.849	-4.7927	0.449	-5.8829	-0.0407	3.0073	2.4865	-9.6123	-10.5142	-10.5762	-10.8053	-9.3905	2.8783	-8.2655	0.3636	0.3131	-6.0469	-8.7521	-7.3872	-1.4093	0.4246	0.2109	0.4415	0.2739	0.3003	0.2255	0.4588	0.2617	0.3062	0.2541	0.3366	0.4196	0.5277	0.4625	0.3273	0.2908	0.2021	0.3839	0.2277	6.3356	1.4293	4.795	19	81	1.21223854874297	0	1
"82"	19	63	2	4	4.3	1	12	1	1	3.782	9.0889	0.6009	1.8433	5.0408	5.195	1.2922	5.2927	-3.2299	18.6876	4.3319	5.8849	8.8458	-2.6428	5.783	9.2923	3.7621	2.316	5.4673	-1.0493	0.1691	0.333	0.333	0.333	0.333	0.333	0.333	0.333	0.333	0.333	0.333	0.333	0.333	0.333	0.333	0.333	0.333	0.333	0.333	0.333	6.327	1.6536	5.4492	19	82	1.33025297023627	1	0
"83"	19	4	2	0	0	1	11	1	0	3.509	4.1475	-5.151	-9.1974	6.0126	0.9767	-4.5622	6.6797	1.9758	1.3481	0.135	-2.8715	-1.6207	-0.3205	-1.8355	-5.8114	10.7609	4.872	-2.2618	3.6302	-5.3448	0.333	0.333	0.333	0.333	0.333	0.333	0.333	0.333	0.333	0.333	0.333	0.333	0.333	0.333	0.333	0.333	0.333	0.333	0.333	6.327	1.7255	5.2433	19	83	1.25533109660108	1	0
"84"	19	48	2	2	2.15	1	7	1	1	2.203	2.6847	-2.9901	4.6258	6.7552	8.6453	5.9456	-0.6055	-7.5698	4.3228	2.2317	-2.5849	5.0569	-0.2578	8.9906	8.5003	-3.1898	-6.1238	-0.4367	2.6213	7.6604	0.333	0.333	0.333	0.333	0.333	0.333	0.333	0.333	0.333	0.333	0.333	0.333	0.333	0.333	0.333	0.333	0.333	0.333	0.333	6.327	1.5746	3.7871	19	84	0.789820067820206	1	0
"85"	19	44	2	-2	-2.15	1	17	1	0	5.584	-3.8709	-0.3954	-5.4136	-8.8278	11.2724	-11.0185	2.5185	-8.589	2.9107	-1.4647	0.4015	-3.9058	-6.6001	-1.1903	-3.1075	-1.1252	-2.7834	-1.7931	1.8875	-0.4325	0.333	0.333	0.333	0.333	0.333	0.333	0.333	0.333	0.333	0.333	0.333	0.333	0.333	0.333	0.333	0.333	0.333	0.333	0.333	6.327	1.7192	7.3186	19	85	1.71990536546007	1	0
"86"	19	26	2	1	1.075	0	7	1	1	2.089	4.2136	6.6636	-0.3478	2.6507	2.4556	5.2121	-0.0557	9.0262	0.3774	-0.4398	1.6404	2.2659	0.8102	4.1508	-6.8724	0.8526	8.2876	-0.8872	-6.9284	-10.893	0.4663	0.2542	0.4316	0.3373	0.205	0.2745	0.3703	0.2249	0.3188	0.3929	0.2668	0.4333	0.2297	0.3856	0.4931	0.2406	0.2081	0.4358	0.3588	6.3277	1.4354	3.5395	19	86	0.736685482574429	1	0
"87"	19	66	2	-1	-1.075	0	5	-1	1	1.509	-4.8903	-3.2387	1.8447	-2.7745	-2.6041	-3.3965	-7.9521	1.9827	-11.0446	4.2109	5.5981	-1.1832	2.786	2.4995	4.5452	0.4227	-8.7764	0.8093	7.4107	-5.7782	0.2078	0.4215	0.2393	0.3258	0.4921	0.4107	0.4543	0.412	0.2404	0.283	0.3306	0.2091	0.4314	0.2494	0.2226	0.524	0.4209	0.2536	0.2061	6.3346	1.4816	2.9928	19	87	0.411447179785712	0	1
"88"	19	35	2	4	4.3	1	8	1	1	2.444	8.2946	8.2589	-3.6399	-1.439	3.2472	8.0699	-0.1476	3.4391	8.2762	-9.0612	11.1824	3.456	6.9198	1.3541	6.2898	10.9377	6.4428	1.9006	4.6432	6.0399	0.333	0.333	0.333	0.333	0.333	0.333	0.333	0.333	0.333	0.333	0.333	0.333	0.333	0.333	0.333	0.333	0.333	0.333	0.333	6.327	1.6314	4.0777	19	88	0.893636041309349	1	0
"89"	19	40	2	1	1.075	0	7	1	1	1.929	1.7564	7.6483	6.1408	-0.7188	2.7641	3.0561	-4.7049	2.9538	-0.3261	-11.7079	-1.6214	0.5607	9.4232	-3.8465	2.9963	0.6309	5.7492	-0.3868	-4.5253	7.0938	0.2128	0.482	0.2205	0.2693	0.2079	0.3517	0.265	0.3581	0.2828	0.2487	0.5271	0.4006	0.2801	0.5073	0.242	0.5008	0.4314	0.281	0.2544	6.3237	1.5078	3.4463	19	89	0.657001733923592	1	0
"90"	19	21	2	4	4.3	1	6	1	1	1.787	1.4288	9.8195	2.7268	6.0541	7.0817	6.8125	-2.7842	11.0841	-0.3007	1.433	-4.1614	6.0986	1.577	10.3351	10.5562	11.8057	5.8193	-2.4275	0.7024	3.1237	0.333	0.333	0.333	0.333	0.333	0.333	0.333	0.333	0.333	0.333	0.333	0.333	0.333	0.333	0.333	0.333	0.333	0.333	0.333	6.327	1.4445	3.238	19	90	0.580538236177291	1	0
"91"	19	16	2	-2	-2.15	1	11	-1	1	3.503	-0.299	-5.1342	-2.5185	-7.3797	-0.4625	-4.3921	2.3329	2.7601	-1.6843	-10.2183	7.8972	3.6011	-1.2184	1.7256	-3.903	0.2681	-6.5685	-1.3389	-3.5155	-13.9688	0.333	0.333	0.333	0.333	0.333	0.333	0.333	0.333	0.333	0.333	0.333	0.333	0.333	0.333	0.333	0.333	0.333	0.333	0.333	6.327	1.6631	5.17	19	91	1.25361974421535	0	1
"92"	19	39	2	0	0	0	8	-1	0	2.34	-4.6402	2.0337	-3.5003	-3.9148	-0.4156	5.1137	2.1061	-11.35	-1.2558	6.0329	-5.767	5.5126	3.9213	-2.8869	-0.2011	6.601	-0.791	-6.6052	1.2407	7.2483	0.3168	0.4097	0.2016	0.2518	0.4242	0.4924	0.2302	0.3104	0.2114	0.4304	0.202	0.2526	0.2065	0.5222	0.2764	0.4781	0.3133	0.4639	0.334	6.3278	1.5853	3.9244	19	92	0.85015092936961	0	1
"93"	19	24	2	-1	-1.075	0	15	-1	1	4.873	-2.2483	-3.3414	-1.6048	-9.0089	-2.7602	5.213	-0.7211	5.3297	-2.2469	-0.5811	3.6298	-6.9666	8.3425	-4.3109	-1.4675	0.9977	-10.6318	2.5769	-5.648	5.1878	0.2439	0.3752	0.3218	0.2783	0.4022	0.2072	0.3744	0.3388	0.4375	0.2904	0.3409	0.2917	0.4959	0.226	0.2862	0.4026	0.4698	0.2293	0.3137	6.3257	1.7118	6.607	19	93	1.58370976386137	0	1
"94"	19	67	2	0	0	0	12	-1	1	3.865	-4.0516	-6.5942	-2.1418	8.7013	-5.5484	2.4128	-4.9274	1.2595	-1.8743	1.1257	-3.6682	6.3901	5.2911	-5.0224	2.8371	3.9317	-4.0965	-0.0026	9.8456	-2.8187	0.224	0.4623	0.3927	0.2025	0.325	0.2833	0.487	0.2862	0.241	0.4457	0.3454	0.2245	0.4268	0.3044	0.2616	0.4365	0.2223	0.3387	0.407	6.317	1.5355	5.4162	19	94	1.35196168203939	0	1
"95"	19	49	2	4	4.3	1	7	1	1	2.291	1.1392	14.3841	-2.1773	4.4447	0.418	10.4687	6.7347	2.5987	4.9819	3.4579	5.6718	-3.4832	1.7644	2.5366	0.0532	8.2707	0.3241	8.9207	1.8313	14.3581	0.333	0.333	0.333	0.333	0.333	0.333	0.333	0.333	0.333	0.333	0.333	0.333	0.333	0.333	0.333	0.333	0.333	0.333	0.333	6.327	1.4202	3.7247	19	95	0.828988403471358	1	0
"96"	19	57	2	-4	-4.3	1	5	-1	1	1.553	-9.2366	-4.8449	-4.441	-14.8145	1.3668	-1.7895	-3.0938	-4.5174	-5.8378	4.5558	-3.8488	-5.2753	-6.6361	-5.1626	-5.4273	4.6761	-11.0186	-2.6228	-9.8326	1.5942	0.333	0.333	0.333	0.333	0.333	0.333	0.333	0.333	0.333	0.333	0.333	0.333	0.333	0.333	0.333	0.333	0.333	0.333	0.333	6.327	1.5508	3.1205	19	96	0.44018854416655	0	1
"97"	19	11	2	0	0	0	11	1	1	3.179	4.2941	-5.5341	1.4783	-1.3006	2.0348	3.5161	1.3257	-1.658	-8.6591	7.1073	-4.2214	-6.4829	-2.9729	-4.9965	5.6861	3.357	-1.5089	-0.1049	-1.7228	11.0927	0.2007	0.2951	0.4009	0.4356	0.4064	0.2831	0.2096	0.3784	0.2605	0.2208	0.3413	0.4473	0.364	0.3926	0.292	0.205	0.4348	0.5304	0.2345	6.3328	1.6388	4.8294	19	97	1.15656668192867	1	0
"98"	19	13	2	2	2.15	0	5	1	1	1.288	5.1455	-1.6136	-2.1461	2.1186	4.2496	7.0303	9.0049	-5.8628	-4.1591	4.0666	0.7985	2.7343	-0.9185	3.3204	-1.2659	-1.0855	-5.1409	7.7569	12.8743	6.8719	0.3661	0.3053	0.2447	0.3411	0.2537	0.222	0.3404	0.4852	0.2545	0.413	0.288	0.4908	0.2297	0.3251	0.4763	0.218	0.2945	0.3693	0.4102	6.3279	1.6832	2.9721	19	98	0.253090627682162	1	0
"99"	19	41	2	2	2.15	0	6	1	1	1.547	2.5234	2.8524	2.2274	-0.9483	6.3267	4.7117	-4.2997	3.6393	2.3938	-3.7785	5.5992	0.2694	5.5424	-3.272	-5.1513	0.3533	9.8144	2.9323	14.9045	-2.573	0.3191	0.2035	0.2963	0.3272	0.2621	0.3222	0.2539	0.3112	0.2196	0.3049	0.2504	0.4799	0.2181	0.3033	0.5279	0.4015	0.4498	0.37	0.5013	6.3223	1.4451	2.9982	19	99	0.436317571590929	1	0
"100"	19	50	2	-4	-4.3	0	4	-1	1	0.991	-7.8142	-14.5554	-4.426	6.6258	-2.5746	1.4679	-11.5524	-9.1129	0.8392	-0.0233	-4.7506	-7.7155	-1.5375	-3.6268	-5.8409	-1.399	-0.8381	-4.327	-2.3646	-11.1	0.266	0.3062	0.2245	0.4016	0.2666	0.3309	0.405	0.3291	0.5105	0.4796	0.2879	0.2368	0.297	0.4016	0.2429	0.2768	0.3708	0.2369	0.4504	6.321	1.5757	2.5748	19	100	-0.00904074465214907	0	1
"101"	19	14	2	4	4.3	0	4	1	1	1.271	5.0195	4.2379	2.0125	2.3323	5.4909	-0.3583	3.0161	3.1834	9.39	10.9118	-1.4336	7.9946	5.6132	-5.5679	4.6164	-0.6582	-1.0233	14.4386	11.6731	6.8471	0.2823	0.354	0.2428	0.4846	0.2	0.2586	0.3731	0.2504	0.4933	0.5281	0.2391	0.4451	0.2451	0.4401	0.397	0.3343	0.208	0.2538	0.2939	6.3236	1.6658	2.939	19	101	0.239803992207317	1	0
"102"	19	9	2	-2	-2.15	0	9	-1	1	2.705	1.9968	4.9248	-10.0554	-9.8511	-0.1266	-5.6361	-2.3223	2.7647	-3.8542	-9.6372	-1.8815	-1.3439	-4.4694	-7.5302	2.4138	1.3081	-2.5729	-5.7072	5.6837	3.1626	0.2624	0.5178	0.2203	0.3101	0.3655	0.3262	0.2162	0.2922	0.208	0.4238	0.3705	0.2274	0.3101	0.3961	0.5175	0.4159	0.2483	0.4035	0.3019	6.3338	1.4356	4.139	19	102	0.995101912298445	0	1
"103"	19	31	2	-1	-1.075	1	19	1	0	6.281	-3.3405	1.312	2.9647	3.5434	-0.732	-11.2902	1.4362	-1.5207	0.9191	-2.7309	-0.7684	-0.4662	-9.9562	0.6381	4.3047	-2.5598	-6.7077	-3.2535	-4.7862	11.0564	0.333	0.333	0.333	0.333	0.333	0.333	0.333	0.333	0.333	0.333	0.333	0.333	0.333	0.333	0.333	0.333	0.333	0.333	0.333	6.327	1.4925	7.7818	19	103	1.83752920347224	1	0
"104"	19	29	2	-4	-4.3	1	7	-1	1	2.183	-2.1792	-6.2452	-20.3262	-0.2179	-2.243	-5.8302	-7.6838	-0.6244	5.3885	-4.3544	-4.3683	-3.4119	-3.9388	-2.7096	-7.9352	0.3037	-7.8507	-0.2104	-6.4458	-4.501	0.333	0.333	0.333	0.333	0.333	0.333	0.333	0.333	0.333	0.333	0.333	0.333	0.333	0.333	0.333	0.333	0.333	0.333	0.333	6.327	1.4327	3.6173	19	104	0.780700077567807	0	1
"105"	19	60	2	0	0	1	11	1	0	3.471	2.4714	3.2628	0.8778	-6.6355	-1.8915	-1.4705	6.7684	0.03	-3.9344	-3.2745	4.8248	-4.9582	-9.1815	-4.5643	3.8837	-0.3203	13.2584	-1.6435	0.6746	1.7822	0.333	0.333	0.333	0.333	0.333	0.333	0.333	0.333	0.333	0.333	0.333	0.333	0.333	0.333	0.333	0.333	0.333	0.333	0.333	6.327	1.5509	5.0388	19	105	1.24444273687965	1	0
"106"	19	12	2	1	1.075	0	13	1	1	4.227	2.0308	-5.5859	3.0165	4.1609	3.7867	4.0751	1.3555	1.0477	12.5335	-5.4214	-3.2044	5.8463	-2.2043	2.1399	5.6854	-1.0879	3.4781	2.1824	-4.6512	-9.435	0.514	0.3881	0.2897	0.2185	0.3193	0.4656	0.2967	0.2046	0.3892	0.4754	0.2588	0.2105	0.2733	0.2361	0.4695	0.2203	0.4935	0.241	0.3609	6.3251	1.6638	5.9111	19	106	1.44149252158465	1	0
"107"	19	37	2	-2	-2.15	0	11	-1	1	3.594	-2.2923	0.8395	-3.3788	-9.4523	-8.0847	0.0252	-4.305	0.2347	0.6617	-4.6664	-7.2485	-1.3037	-4.8211	6.1937	-9.9847	-7.8829	8.2992	0.3367	4.4449	0.0104	0.2616	0.348	0.3208	0.4429	0.3195	0.2749	0.3121	0.3725	0.296	0.4533	0.2588	0.5019	0.3376	0.2715	0.3311	0.2913	0.2233	0.3012	0.4127	6.3311	1.5409	5.1442	19	107	1.27926578836137	0	1
"108"	19	17	2	-1	-1.075	1	9	1	0	2.918	2.2576	5.8012	0.6651	1.7642	4.4857	-3.3239	-5.4797	-3.2642	0.0976	1.9512	-11.1143	-0.0519	6.3872	-1.506	-0.7347	-4.9054	-9.6691	-0.9025	3.2864	-8.9231	0.333	0.333	0.333	0.333	0.333	0.333	0.333	0.333	0.333	0.333	0.333	0.333	0.333	0.333	0.333	0.333	0.333	0.333	0.333	6.327	1.4961	4.4184	19	108	1.07089845010059	1	0
"109"	19	1	2	-4	-4.3	1	5	-1	1	1.471	-8.5302	-6.925	-3.2581	-9.3133	-5.0875	-2.0083	-6.8067	-9.848	-2.8246	-6.3423	-0.3839	-3.656	-2.5478	-10.5601	-6.4574	0.7772	-3.0527	10.308	-10.0668	2.2395	0.333	0.333	0.333	0.333	0.333	0.333	0.333	0.333	0.333	0.333	0.333	0.333	0.333	0.333	0.333	0.333	0.333	0.333	0.333	6.327	1.5369	3.0213	19	109	0.385942441619301	0	1
"110"	19	70	2	4	4.3	0	8	1	1	2.661	2.1656	1.8891	2.4774	16.8792	4.5984	-1.4785	4.2426	4.456	10.4359	-2.2996	2.0587	6.2763	2.4808	3.3044	1.6086	2.4114	11.309	1.9105	-0.9618	13.987	0.254	0.4354	0.2285	0.3208	0.3562	0.4573	0.2299	0.4093	0.212	0.261	0.3278	0.4802	0.2834	0.2476	0.406	0.4812	0.3949	0.3285	0.2096	6.3236	1.6447	4.312	19	110	0.978701991995552	1	0
"111"	19	28	2	4	4.3	0	8	1	1	2.702	2.058	-2.3106	0.5145	5.5185	10.1966	1.7273	-0.0865	10.4496	7.6226	1.1971	2.1081	-0.3943	12.7208	0.2425	3.276	4.8675	9.6977	11.669	-4.1774	8.3758	0.4747	0.2084	0.3819	0.2221	0.3617	0.2704	0.395	0.4649	0.4218	0.2347	0.4659	0.2118	0.3169	0.2367	0.434	0.2166	0.2598	0.3178	0.4403	6.3354	1.4238	4.1363	19	111	0.993992239538007	1	0
"112"	19	52	2	-1	-1.075	0	11	-1	1	3.504	2.0788	-8.1404	-4.3768	-9.3954	-1.6869	-0.0967	-0.3986	3.1937	3.8903	-8.5627	2.3668	2.6825	-0.3718	5.0736	1.6405	-9.9709	-6.7401	5.0115	2.5375	-2.1362	0.2022	0.3629	0.4059	0.2029	0.5167	0.2817	0.3249	0.226	0.253	0.2859	0.5075	0.2429	0.3567	0.3268	0.2715	0.4543	0.5001	0.2339	0.3707	6.3265	1.4982	5.0048	19	112	1.25390517307415	0	1
"113"	19	23	2	-2	-2.15	0	10	-1	1	3.019	-0.2406	4.5049	2.4427	1.978	-0.2167	-7.6101	-8.8118	-3.4144	-1.5713	-2.0378	5.5693	-1.038	-8.2228	1.6748	-7.9667	-11.4926	2.401	2.9158	-4.1324	-6.1809	0.2004	0.3248	0.4192	0.4914	0.2343	0.4464	0.2405	0.2789	0.231	0.2035	0.349	0.2893	0.4452	0.3175	0.3796	0.4903	0.3361	0.4358	0.2172	6.3304	1.4988	4.5201	19	113	1.1049256507247	0	1
"114"	19	55	2	2	2.15	0	9	1	1	2.749	2.839	7.5264	2.1247	6.9501	9.1522	11.3187	8.1113	-4.975	5.5608	-2.7706	-5.3283	2.3597	1.9359	1.1482	4.0158	-6.7424	-1.5723	-0.2743	2.8573	-2.5643	0.5327	0.2728	0.3322	0.2788	0.2355	0.2803	0.2146	0.2813	0.355	0.3173	0.2395	0.3484	0.3867	0.5009	0.2505	0.4429	0.4794	0.2742	0.3104	6.3334	1.5775	4.3335	19	114	1.01123720918311	1	0
"115"	19	6	2	2	2.15	1	7	1	1	2.169	2.928	3.9578	7.359	-2.8955	8.6647	10.06	-1.9005	6.4233	3.2675	0.6887	10.624	3.1694	2.4002	-3.6378	-1.5012	-4.5956	5.1689	0.1215	-6.9744	-2.1165	0.333	0.333	0.333	0.333	0.333	0.333	0.333	0.333	0.333	0.333	0.333	0.333	0.333	0.333	0.333	0.333	0.333	0.333	0.333	6.327	1.5872	3.7701	19	115	0.774266231844737	1	0
"116"	19	19	2	1	1.075	1	7	1	1	2.173	2.1275	-5.0814	16.118	3.1505	-0.3823	3.0071	4.7378	-1.8423	-7.4202	1.8869	2.8193	0.8232	-1.5021	-2.1783	4.6016	0.6243	-3.334	3.4743	-3.7626	5.4112	0.333	0.333	0.333	0.333	0.333	0.333	0.333	0.333	0.333	0.333	0.333	0.333	0.333	0.333	0.333	0.333	0.333	0.333	0.333	6.327	1.5946	3.7906	19	116	0.776108701274293	1	0
"117"	19	15	2	-4	-4.3	1	9	-1	1	2.779	-6.0851	5.6247	-6.1714	4.8038	-8.4001	-9.882	-6.8356	-4.4757	-4.6329	-7.924	-13.7281	-4.0787	-4.566	-4.9983	-8.4078	-1.7987	-5.0607	-1.0109	-3.5073	4.7324	0.333	0.333	0.333	0.333	0.333	0.333	0.333	0.333	0.333	0.333	0.333	0.333	0.333	0.333	0.333	0.333	0.333	0.333	0.333	6.327	1.6229	4.413	19	117	1.02209115076037	0	1
"118"	19	20	2	2	2.15	1	9	1	1	2.924	-1.373	6.0676	-3.7883	-3.4565	8.5129	1.8529	-0.2769	-1.6351	6.5831	6.3465	15.6865	0.3819	-1.8811	-0.6506	-1.9824	-2.9846	0.6874	5.0387	3.516	7.2501	0.333	0.333	0.333	0.333	0.333	0.333	0.333	0.333	0.333	0.333	0.333	0.333	0.333	0.333	0.333	0.333	0.333	0.333	0.333	6.327	1.4538	4.3912	19	118	1.07295254188753	1	0
"119"	19	56	2	4	4.3	0	13	1	1	4.049	4.6814	6.4065	3.7496	-2.5579	9.3198	-6.2476	12.1282	6.2826	2.3019	0.2938	-1.8559	0.9674	0.3379	4.0353	4.0513	8.8306	9.7318	12.103	8.1112	3.5526	0.327	0.2054	0.3487	0.3056	0.2429	0.3458	0.2547	0.4517	0.4027	0.3365	0.4581	0.3385	0.2959	0.4575	0.2169	0.332	0.4144	0.3606	0.2283	6.3233	1.5731	5.6329	19	119	1.39846993705002	1	0
"120"	19	68	2	1	1.075	0	9	1	1	3.214	2.2642	1.3565	-1.6698	0.4765	-2.8421	1.7055	-1.9691	9.608	1.4584	-1.015	-8.7693	-1.9893	6.0165	2.4431	14.4537	-2.4733	1.9348	-2.9663	4.7525	-2.8794	0.5314	0.4941	0.3677	0.4124	0.4779	0.2463	0.2948	0.2638	0.2137	0.285	0.2471	0.505	0.2041	0.3277	0.4157	0.3601	0.2061	0.2702	0.2013	6.3245	1.6784	4.898	19	120	1.16751626731532	1	0
"121"	19	54	2	1	1.075	0	9	1	1	2.855	-1.9124	6.397	6.7752	6.0683	-1.7564	4.9443	3.012	5.6112	4.3422	3.558	0.0567	-5.9376	1.8529	6.8481	-2.5397	1.0312	-0.2581	-2.9135	-12.375	-1.3441	0.2044	0.476	0.2051	0.3053	0.4894	0.2499	0.328	0.4487	0.3542	0.2001	0.3362	0.5168	0.2756	0.4914	0.2786	0.2303	0.4614	0.2145	0.2678	6.3338	1.5287	4.389	19	121	1.04907184310797	1	0
"122"	19	69	2	2	2.15	0	9	1	1	2.766	-1.0603	-0.2524	5.975	-2.3163	6.7974	1.7668	5.5544	-6.862	4.4247	10.0345	7.1829	0.7398	4.0336	-1.2868	9.7419	4.5649	0.2147	2.8153	-3.21	-7.6227	0.4178	0.2785	0.2121	0.4584	0.2852	0.3335	0.2785	0.2419	0.4725	0.2552	0.4914	0.3644	0.4985	0.3626	0.3359	0.2768	0.2206	0.3088	0.2355	6.328	1.4826	4.2498	19	122	1.01740223324257	1	0
"123"	19	38	2	-1	-1.075	0	19	1	0	6.328	-5.7498	1.8994	-3.8289	3.8157	-0.9876	3.3338	-7.2878	-6.2381	0.089	-1.2879	-12.227	4.6614	1.8261	-4.4717	1.2195	2.7579	3.1081	-8.8891	6.1084	-0.2972	0.2663	0.4885	0.5172	0.2268	0.4832	0.4056	0.2345	0.3102	0.2696	0.3582	0.2583	0.376	0.4136	0.2171	0.3654	0.2496	0.2037	0.2546	0.4363	6.3348	1.5448	7.8784	19	123	1.84498423046535	1	0
"124"	19	5	2	1	1.075	1	13	1	1	4.173	3.655	6.7697	-1.3313	-3.1807	-0.0902	-7.0007	0.7881	-3.6263	-3.2016	3.5582	3.5594	1.6275	3.1801	-8.6929	5.2771	4.3455	-5.651	4.1436	7.3707	9.1906	0.333	0.333	0.333	0.333	0.333	0.333	0.333	0.333	0.333	0.333	0.333	0.333	0.333	0.333	0.333	0.333	0.333	0.333	0.333	6.327	1.631	5.8067	19	124	1.42863520160942	1	0
"125"	19	3	2	-1	-1.075	1	9	-1	1	2.801	-5.8156	-1.9506	7.04	1.6439	-7.3969	-2.8958	-3.5664	-0.906	1.9356	2.8202	-0.6863	-5.9844	-3.8208	-10.04	0.3129	7.1534	8.0111	-1.4922	2.4786	-6.9088	0.333	0.333	0.333	0.333	0.333	0.333	0.333	0.333	0.333	0.333	0.333	0.333	0.333	0.333	0.333	0.333	0.333	0.333	0.333	6.327	1.6359	4.4519	19	125	1.02997649627797	0	1
"126"	19	47	2	1	1.075	1	8	1	1	2.385	3.9755	4.9093	2.8841	-2.0831	1.9018	11	1.1132	0.8108	1.3259	10.0513	-0.722	0.1897	-3.5147	-0.8603	3.5687	-8.7405	4.7058	1.4747	-2.2984	-9.8069	0.333	0.333	0.333	0.333	0.333	0.333	0.333	0.333	0.333	0.333	0.333	0.333	0.333	0.333	0.333	0.333	0.333	0.333	0.333	6.327	1.6039	4.0026	19	126	0.869199124340304	1	0
"127"	19	51	2	-2	-2.15	0	4	-1	1	1.446	-5.0147	-13.4478	-5.5566	-1.3013	0.2133	-3.1586	2.5248	-5.0169	-11.4828	2.7536	-3.609	5.6113	-3.093	-1.8962	3.9748	-6.3687	2.5513	-5.0693	2.9062	2.543	0.3959	0.22	0.3152	0.5252	0.2007	0.4652	0.2815	0.4551	0.4827	0.3238	0.219	0.3384	0.2561	0.3178	0.2269	0.1998	0.3518	0.4691	0.2729	6.3171	1.4125	2.8801	19	127	0.368801123736573	0	1
"128"	19	33	2	1	1.075	1	12	1	1	3.685	2.8757	3.2913	1.1613	4.0239	-10.5001	1.799	3.0863	-5.8069	7.3921	2.1965	-6.2156	7.5249	7.3199	-0.4528	3.0835	6.278	-6.0211	-0.7854	2.018	0.8497	0.333	0.333	0.333	0.333	0.333	0.333	0.333	0.333	0.333	0.333	0.333	0.333	0.333	0.333	0.333	0.333	0.333	0.333	0.333	6.327	1.6488	5.352	19	128	1.3042705256413	1	0
"129"	19	58	2	-2	-2.15	1	5	1	0	1.605	1.1263	0.5985	-2.2622	-1.3255	10.7425	0.976	3.1685	-10.0921	-5.9832	-7.8263	-7.5442	-5.6764	-4.1833	-0.2982	-4.4858	-1.7796	-6.6281	1.5641	-5.7129	3.3098	0.333	0.333	0.333	0.333	0.333	0.333	0.333	0.333	0.333	0.333	0.333	0.333	0.333	0.333	0.333	0.333	0.333	0.333	0.333	6.327	1.5233	3.1391	19	129	0.473123756581979	1	0
"130"	19	27	2	2	2.15	0	11	1	1	3.483	0.1903	0.0087	13.294	4.7684	8.4186	-0.2316	-2.4382	-0.6057	5.5082	8.6353	1.0338	2.3992	-3.9139	-8.9082	2.1347	0.354	6.482	4.906	3.5114	-0.8892	0.4711	0.4206	0.2676	0.2012	0.4518	0.352	0.2948	0.2216	0.4859	0.3089	0.2134	0.3175	0.4362	0.3694	0.2871	0.3193	0.2516	0.3917	0.2574	6.3187	1.5001	5.0006	19	130	1.24789399138386	1	0
"131"	19	8	2	-4	-4.3	0	5	-1	1	1.595	-3.4338	-3.5607	-10.9589	-8.1759	-3.4946	0.405	-6.8719	3.1945	-3.5852	-17.0272	0.5925	4.0733	-10.217	-6.7481	-4.6768	-1.2727	-2.4705	-4.3358	-5.3112	-2.8437	0.3274	0.3023	0.455	0.3944	0.4746	0.3981	0.2051	0.2711	0.2146	0.3597	0.3144	0.4155	0.2384	0.3084	0.5131	0.2377	0.2751	0.3397	0.2777	6.3222	1.6559	3.2629	19	131	0.466873736236808	0	1
"132"	19	59	2	-1	-1.075	1	7	1	0	2.283	1.216	3.7209	-1.8988	-4.811	0.883	-8.2283	2.1565	4.6884	4.8545	2.3198	-5.9444	1.6663	-5.7645	2.9515	2.671	-8.8327	-2.6562	1.9571	-12.0666	-1.9881	0.333	0.333	0.333	0.333	0.333	0.333	0.333	0.333	0.333	0.333	0.333	0.333	0.333	0.333	0.333	0.333	0.333	0.333	0.333	6.327	1.6595	3.9506	19	132	0.825490367547658	1	0
"133"	19	46	2	0	0	1	16	1	1	5.046	1.6205	6.2406	6.9285	4.9274	0.8569	-11.5129	-2.1934	-5.458	-0.5201	9.1535	5.178	-3.9223	1.0814	-0.2198	-2.0729	0.4406	-5.7428	0.7391	-4.1571	0.1108	0.333	0.333	0.333	0.333	0.333	0.333	0.333	0.333	0.333	0.333	0.333	0.333	0.333	0.333	0.333	0.333	0.333	0.333	0.333	6.327	1.4296	6.4796	19	133	1.61859585021887	1	0
"134"	19	32	2	0	0	1	7	1	0	2.292	0.6654	-0.0864	-0.8606	-1.601	-4.0206	11.6558	-2.5002	9.9768	-3.5637	-0.1365	-4.4661	5.39	-2.0538	4.1814	-4.6827	-7.4978	2.3399	-4.3573	4.4977	-2.1435	0.333	0.333	0.333	0.333	0.333	0.333	0.333	0.333	0.333	0.333	0.333	0.333	0.333	0.333	0.333	0.333	0.333	0.333	0.333	6.327	1.4963	3.7928	19	134	0.829424798852493	1	0
"135"	19	64	2	-4	-4.3	0	7	-1	1	2.159	-7.9115	4.4904	-1.5212	-0.4835	-3.3529	-7.2751	-6.3148	-1.0607	-0.6103	1.7254	-4.9072	-9.6493	-3.4717	-15.6287	-5.2434	-8.1187	-0.0641	-6.7436	1.0918	-12.5486	0.2414	0.4151	0.2843	0.3919	0.2023	0.3126	0.5199	0.4134	0.2029	0.4557	0.2303	0.394	0.2721	0.3447	0.2421	0.3084	0.2597	0.481	0.3513	6.323	1.6165	3.776	19	135	0.76964515153267	0	1
"136"	19	36	2	-4	-4.3	0	4	-1	1	1.019	-5.8858	-2.4822	-3.9433	4.5027	2.1066	-0.9578	-7.5292	-2.4317	-7.6816	-12.1131	-7.3828	-1.8337	-5.4857	-3.536	2.4068	-9.8927	-12.9057	2.1582	-2.2261	-8.9983	0.2207	0.2683	0.4406	0.3877	0.2163	0.3275	0.4566	0.3444	0.2365	0.2019	0.411	0.4825	0.3975	0.2653	0.2984	0.4087	0.215	0.427	0.3268	6.3325	1.4422	2.4867	19	136	0.0188217542405877	0	1
"137"	19	61	2	1	1.075	1	16	1	1	5.105	2.7694	0.0651	-1.8331	-1.1756	7.6586	-1.1712	6.4893	-5.744	11.6034	2.6942	-3.4068	9.2985	-5.1449	-1.7764	-2.7177	-1.764	-5.2478	0.9923	5.1181	5.1093	0.333	0.333	0.333	0.333	0.333	0.333	0.333	0.333	0.333	0.333	0.333	0.333	0.333	0.333	0.333	0.333	0.333	0.333	0.333	6.327	1.6502	6.7727	19	137	1.63022045161663	1	0
"138"	19	7	2	4	4.3	1	4	1	1	1.192	7.6317	9.3074	0.8578	-3.1684	4.1697	-2.3073	6.2919	9.0965	4.1516	-3.7626	6.5984	4.901	7.0431	-8.1118	3.5748	11.3007	6.6449	8.0555	6.1511	6.7612	0.333	0.333	0.333	0.333	0.333	0.333	0.333	0.333	0.333	0.333	0.333	0.333	0.333	0.333	0.333	0.333	0.333	0.333	0.333	6.327	1.6154	2.8263	19	138	0.175632568643158	1	0
"139"	19	53	2	0	0	0	12	1	1	4.05	-0.5325	-1.3261	3.0814	-9.5875	3.78	-4.0731	-4.0705	4.1982	8.0116	3.6391	3.0855	-0.9881	5.1028	-2.0285	9.6227	-3.4157	-7.6162	-1.1277	-3.9477	-1.2371	0.4321	0.2664	0.444	0.3323	0.5209	0.2892	0.3387	0.4226	0.2423	0.4278	0.2175	0.3678	0.3342	0.2253	0.4143	0.3258	0.2032	0.2479	0.2734	6.3258	1.6038	5.6675	19	139	1.39871688111845	1	0
"140"	19	45	2	-1	-1.075	1	5	-1	1	1.441	-5.2833	-6.7772	7.135	-7.2786	-5.9951	0.841	-4.905	5.3184	0.9535	-0.1036	-5.3137	5.3458	-3.5489	0.3609	8.5597	1.7764	0.9065	-7.1522	-1.2595	-3.0857	0.333	0.333	0.333	0.333	0.333	0.333	0.333	0.333	0.333	0.333	0.333	0.333	0.333	0.333	0.333	0.333	0.333	0.333	0.333	6.327	1.4666	2.9248	19	140	0.365337317017385	0	1
"141"	19	16	3	-2	-2.15	1	11	-1	1	3.609	-1.7947	-7.8883	6.7338	5.6066	-8.892	1.2315	3.5992	-4.7512	1.6108	-6.8372	-6.7094	1.6029	-2.1009	-6.2943	-6.6075	-3.1604	-5.9307	5.948	-2.4182	-5.076	0.333	0.333	0.333	0.333	0.333	0.333	0.333	0.333	0.333	0.333	0.333	0.333	0.333	0.333	0.333	0.333	0.333	0.333	0.333	6.327	1.4075	5.0266	19	141	1.28343072566065	0	1
"142"	19	10	3	-1	-1.075	0	15	1	0	4.773	0.0516	-2.0506	3.3144	-14.1273	-6.0583	1.385	-0.3759	-2.1755	-0.5071	1.8429	-4.7839	-4.6596	-6.6187	1.5556	0.5408	1.7543	-2.7245	2.8604	-0.6336	11.4579	0.2274	0.4894	0.2366	0.2054	0.2664	0.3565	0.2987	0.4905	0.2153	0.3399	0.2776	0.4229	0.3621	0.2996	0.3288	0.4129	0.2375	0.5203	0.3395	6.3272	1.6934	6.4741	19	142	1.56297503802376	1	0
"143"	19	59	3	-1	-1.075	1	16	1	0	5.063	-1.2576	1.7492	2.7797	-9.0297	3.5706	6.6011	-3.3199	-2.7791	-0.7469	-9.9207	-5.4544	-9.545	0.3573	-0.1381	-0.3224	3.5195	-3.1741	-0.1866	-2.6463	9.1461	0.333	0.333	0.333	0.333	0.333	0.333	0.333	0.333	0.333	0.333	0.333	0.333	0.333	0.333	0.333	0.333	0.333	0.333	0.333	6.327	1.5596	6.6301	19	143	1.62195919298777	1	0
"144"	19	29	3	-4	-4.3	1	8	-1	1	2.494	-4.6197	-5.0669	-1.1157	-9.3117	0.3609	-6.8978	-14.1777	-2.5479	-5.7243	4.7781	-4.7426	1.7302	-8.5036	-12.9203	-8.0322	-1.2551	-1.4986	-8.324	1.29	-0.7851	0.333	0.333	0.333	0.333	0.333	0.333	0.333	0.333	0.333	0.333	0.333	0.333	0.333	0.333	0.333	0.333	0.333	0.333	0.333	6.327	1.4922	3.9943	19	144	0.913887847257845	0	1
"145"	19	42	3	4	4.3	0	9	1	1	2.638	0.6149	0.2078	10.7677	-3.5975	6.2256	6.6581	5.5965	8.5203	8.1581	9.7809	-6.7211	-2.7514	7.6032	5.9124	0.4553	3.6293	8.3563	9.5514	0.6324	5.8041	0.2838	0.2011	0.3974	0.3438	0.2602	0.3134	0.2793	0.3352	0.4587	0.3005	0.4516	0.3105	0.2507	0.3165	0.3924	0.3061	0.3741	0.48	0.2734	6.3287	1.6946	4.3555	19	145	0.970021054295123	1	0
"146"	19	44	3	-2	-2.15	1	10	-1	1	3.099	-4.8196	-6.2779	-10.1563	0.9734	3.4376	1.8494	1.2702	2.3047	-11.0925	-1.7572	-0.7516	-5.6886	1.8512	1.5652	-3.4164	-7.8359	-1.2969	0.3516	5.5517	-10.4234	0.333	0.333	0.333	0.333	0.333	0.333	0.333	0.333	0.333	0.333	0.333	0.333	0.333	0.333	0.333	0.333	0.333	0.333	0.333	6.327	1.5127	4.6329	19	146	1.13107947880561	0	1
"147"	19	34	3	2	2.15	1	5	1	1	1.406	3.1428	9.6799	1.5616	-3.3863	-0.7875	-2.1111	-3.1542	1.5724	4.1314	2.194	3.8527	0.304	2.215	12.3371	5.2461	9.1804	7.7066	-3.8079	-6.3493	-0.1763	0.333	0.333	0.333	0.333	0.333	0.333	0.333	0.333	0.333	0.333	0.333	0.333	0.333	0.333	0.333	0.333	0.333	0.333	0.333	6.327	1.501	2.9232	19	147	0.340748793388473	1	0
"148"	19	22	3	-4	-4.3	0	12	-1	1	3.675	-2.8206	-0.5334	-4.0398	0.754	-2.0956	-5.5114	-0.9722	-4.2194	-16.157	-7.111	5.7901	-2.0735	-7.6908	-6.9176	-9.7756	-0.2161	-9.5501	-7.3676	2.9253	-7.5922	0.2292	0.2631	0.2009	0.4938	0.5239	0.2983	0.2634	0.4426	0.3975	0.2328	0.2849	0.4326	0.2734	0.2157	0.3946	0.214	0.4339	0.2823	0.4501	6.327	1.5032	5.1924	19	148	1.3015531326648	0	1
"149"	19	19	3	1	1.075	1	12	1	1	3.87	0.151	-1.9165	3.0718	-4.8253	5.801	10.507	3.1418	2.9684	2.239	3.0715	0.1949	-4.7523	4.8668	0.3968	1.3862	-0.6435	6.6907	-3.9107	3.8738	-11.9304	0.333	0.333	0.333	0.333	0.333	0.333	0.333	0.333	0.333	0.333	0.333	0.333	0.333	0.333	0.333	0.333	0.333	0.333	0.333	6.327	1.688	5.5706	19	149	1.35325450704169	1	0
"150"	19	52	3	-1	-1.075	0	10	-1	1	3.381	-5.8289	6.6059	-5.0383	5.8404	-4.5845	-0.1636	2.4059	-1.7554	-1.1989	0.1262	-1.5143	-0.6419	-1.0972	-12.3908	-1.4561	7.4259	-5.7006	-7.0787	-1.8796	5.9827	0.4853	0.2067	0.4106	0.272	0.3509	0.3084	0.3869	0.4829	0.2133	0.2912	0.3348	0.3889	0.2287	0.3913	0.2249	0.3757	0.2466	0.3255	0.4073	6.3316	1.657	5.0486	19	150	1.21817152372575	0	1
"151"	19	3	3	-1	-1.075	1	11	-1	1	3.528	0.4397	5.3304	0.0862	-6.2349	1.9622	-7.1009	0.4271	3.5273	-6.2295	6.1596	4.3215	-4.2797	-10.2597	-10.2669	1.5073	-1.7577	2.994	2.7915	-5.2712	0.5778	0.333	0.333	0.333	0.333	0.333	0.333	0.333	0.333	0.333	0.333	0.333	0.333	0.333	0.333	0.333	0.333	0.333	0.333	0.333	6.327	1.6206	5.1617	19	151	1.26073113814454	0	1
"152"	19	33	3	1	1.075	1	9	-1	0	2.844	-1.4852	-2.0601	5.7934	-1.3273	7.2251	-5.7288	-0.5775	-5.8167	-2.5745	1.5514	-4.0994	6.6857	3.6321	-0.5255	1.5312	12.3013	5.7644	-0.1532	5.6189	-4.5985	0.333	0.333	0.333	0.333	0.333	0.333	0.333	0.333	0.333	0.333	0.333	0.333	0.333	0.333	0.333	0.333	0.333	0.333	0.333	6.327	1.5261	4.3783	19	152	1.04521151194099	0	1
"153"	19	5	3	1	1.075	1	11	1	1	3.556	-3.7173	9.8194	-1.1399	-4.9534	-0.241	6.0974	4.4052	3.2448	5.8551	1.0528	-11.8144	2.0958	-1.3347	-1.0463	8.4419	-2.494	3.1448	3.6907	0.8962	-2.0851	0.333	0.333	0.333	0.333	0.333	0.333	0.333	0.333	0.333	0.333	0.333	0.333	0.333	0.333	0.333	0.333	0.333	0.333	0.333	6.327	1.5076	5.0734	19	153	1.26863631765166	1	0
"154"	19	20	3	2	2.15	1	6	1	1	1.886	-1.0237	3.3307	4.1011	1.2924	3.5523	-0.2361	7.7686	4.3528	3.5087	17.6418	-2.411	6.4059	-2.9201	-4.2008	0.8917	1.3311	-2.2891	-3.1997	3.5513	2.4451	0.333	0.333	0.333	0.333	0.333	0.333	0.333	0.333	0.333	0.333	0.333	0.333	0.333	0.333	0.333	0.333	0.333	0.333	0.333	6.327	1.7015	3.5873	19	154	0.634458184211266	1	0
"155"	19	65	3	-2	-2.15	0	14	-1	1	4.555	-5.6444	9.3015	2.6092	-1.5838	-11.5637	0.4836	-1.875	-7.484	-4.1192	5.9071	-0.9205	-4.6409	-2.4597	-7.7759	-7.3594	-5.3625	3.7765	0.3653	-1.6499	-4.4655	0.5117	0.4056	0.2421	0.3396	0.2962	0.2089	0.4013	0.4416	0.3793	0.3049	0.2219	0.335	0.4165	0.284	0.5042	0.3553	0.2051	0.254	0.2116	6.3189	1.7197	6.289	19	155	1.51622553071192	0	1
"156"	19	13	3	2	2.15	0	7	1	1	2.091	4.6538	0.9824	7.2733	-2.0299	3.2797	-1.2882	4.5803	5.9878	-2.2136	6.8042	8.7537	-5.6715	7.1555	5.9189	2.7508	-6.1162	7.9261	-2.7481	-6.7005	4.0245	0.2244	0.3449	0.3175	0.4778	0.3004	0.2358	0.4826	0.2333	0.4826	0.2428	0.2932	0.4388	0.2325	0.4608	0.3374	0.387	0.3405	0.2014	0.2927	6.3263	1.7037	3.8085	19	156	0.737642420446497	1	0
"157"	19	38	3	-1	-1.075	0	5	1	0	1.256	-5.901	-4.0981	-5.2106	4.1299	-7.7572	-1.2742	0.6549	-1.6081	-7.1723	0.0074	-4.1624	2.7997	-2.5039	9.993	-9.3051	7.9065	0.6717	2.3803	1.4697	-3.2254	0.3109	0.2688	0.2285	0.258	0.4099	0.3075	0.3387	0.4387	0.2399	0.5204	0.2119	0.37	0.3229	0.3693	0.4995	0.413	0.3221	0.2758	0.2312	6.3369	1.6443	2.9068	19	157	0.227932068046007	1	0
"158"	19	17	3	-1	-1.075	1	7	-1	1	2.188	-2.8781	-7.0006	3.8695	-3.813	2.0725	7.616	-2.0198	11.5132	-0.9704	-0.2738	-5.4251	-1.7864	-3.8829	1.748	-3.9275	-5.2419	-7.0944	3.7954	-0.04	-7.2739	0.333	0.333	0.333	0.333	0.333	0.333	0.333	0.333	0.333	0.333	0.333	0.333	0.333	0.333	0.333	0.333	0.333	0.333	0.333	6.327	1.7194	3.922	19	158	0.782987884559735	0	1
"159"	19	6	3	2	2.15	1	15	1	1	4.907	5.6281	7.4992	-1.4199	-4.7361	0.2965	-1.1876	-7.0379	-1.3598	9.8582	-4.4094	2.6458	-2.6963	3.1406	5.1426	6.6948	5.705	7.9567	3.766	-0.9921	8.3558	0.333	0.333	0.333	0.333	0.333	0.333	0.333	0.333	0.333	0.333	0.333	0.333	0.333	0.333	0.333	0.333	0.333	0.333	0.333	6.327	1.4147	6.3245	19	159	1.59066275710777	1	0
"160"	19	70	3	4	4.3	0	5	1	1	1.35	-0.4372	9.6713	1.2464	-5.4372	11.8703	7.1034	0.1263	3.6967	5.6831	-0.6571	0.4458	0.7758	1.6514	13.7232	7.5178	5.9909	12.7392	3.1515	1.3908	4.9448	0.3761	0.2398	0.2803	0.3059	0.2396	0.475	0.4144	0.2079	0.2812	0.3919	0.2376	0.2918	0.3312	0.2412	0.4021	0.3065	0.4019	0.3736	0.5298	6.3277	1.6009	2.9673	19	160	0.300104592450338	1	0
"161"	19	14	3	4	4.3	0	4	1	1	1.357	2.9218	2.7501	0.1852	10.0421	13.631	7.3516	3.8147	-1.3986	6.1994	1.3261	14.5658	1.93	-1.9181	8.8195	7.5447	2.4869	5.5168	-0.0937	2.9365	-4.3826	0.2173	0.4274	0.3955	0.5264	0.2944	0.2574	0.2189	0.3392	0.2023	0.2524	0.3729	0.3057	0.2389	0.3247	0.3645	0.4838	0.2824	0.4578	0.3694	6.3314	1.5584	2.9247	19	161	0.305276380852732	1	0
"162"	19	26	3	1	1.075	0	18	1	1	6.047	1.2746	-5.3572	-4.0116	-2.015	-2.4087	-4.8747	9.3089	2.6261	5.2721	8.5262	-0.1444	9.109	-8.7571	-2.854	5.4027	0.0477	4.502	0.1201	4.3269	3.0495	0.3396	0.4869	0.3924	0.3429	0.2266	0.2904	0.342	0.2725	0.2201	0.5101	0.422	0.3219	0.3493	0.3142	0.3772	0.2105	0.2655	0.4241	0.219	6.327	1.5751	7.6307	19	162	1.79956228129108	1	0
"163"	19	30	3	-2	-2.15	1	19	-1	1	6.192	-3.7643	5.856	-3.0444	-2.6514	7.0574	-11.848	-3.0616	-7.4913	5.9556	-3.8536	3.5311	-4.9686	-1.4405	3.1788	-2.3641	-1.8802	-9.2772	-3.4952	-2.0709	-6.6337	0.333	0.333	0.333	0.333	0.333	0.333	0.333	0.333	0.333	0.333	0.333	0.333	0.333	0.333	0.333	0.333	0.333	0.333	0.333	6.327	1.5984	7.793	19	163	1.82325813628743	0	1
"164"	19	47	3	1	1.075	1	3	1	1	0.907	4.3894	0.9158	7.8459	1.9164	5.9482	-6.3551	-1.5227	-0.6993	2.9678	4.7331	11.4331	-3.3603	-1.7581	-4.1723	-8.0929	2.0393	4.9897	0.6305	-4.4575	3.5973	0.333	0.333	0.333	0.333	0.333	0.333	0.333	0.333	0.333	0.333	0.333	0.333	0.333	0.333	0.333	0.333	0.333	0.333	0.333	6.327	1.4661	2.3747	19	164	-0.0976128288670004	1	0
"165"	19	25	3	0	0	0	7	-1	1	1.963	-1.3786	-7.8234	0.7473	-0.0288	1.0586	0.9944	-2.0489	12.3094	0.9634	4.0952	4.543	-3.225	-0.8123	-2.0514	4.4802	0.864	-11.8986	-3.5099	4.9912	-2.3759	0.4818	0.3475	0.2122	0.2668	0.2087	0.2615	0.4334	0.2084	0.2827	0.4293	0.3382	0.2741	0.3403	0.4033	0.3778	0.439	0.2723	0.4279	0.3318	6.3369	1.6622	3.6303	19	165	0.674473915294324	0	1
"166"	19	62	3	2	2.15	1	12	1	1	3.916	7.1449	0.6211	5.0508	3.1233	1.5093	9.5252	1.3658	-2.7529	-4.7801	0.7944	3.8525	-0.9938	13.3019	-8.3867	7.2355	-2.9482	0.5017	-0.4607	5.7493	2.3304	0.333	0.333	0.333	0.333	0.333	0.333	0.333	0.333	0.333	0.333	0.333	0.333	0.333	0.333	0.333	0.333	0.333	0.333	0.333	6.327	1.6477	5.5837	19	166	1.36507072466826	1	0
"167"	19	9	3	-2	-2.15	0	10	-1	1	3.145	-0.2369	-4.1762	1.7657	4.4747	-5.0245	-10.0812	-5.4124	-2.2043	-7.7566	-0.5673	-10.3295	0.7914	-2.3197	-8.8825	8.8326	-2.6132	-5.6573	4.2493	0.9456	-0.151	0.2072	0.285	0.323	0.2556	0.4935	0.4442	0.2812	0.3178	0.2496	0.5109	0.2522	0.2846	0.3261	0.3637	0.2182	0.2949	0.4164	0.339	0.4638	6.3269	1.6293	4.7961	19	167	1.1458138901524	0	1
"168"	19	56	3	4	4.3	0	7	1	1	2.325	0.3417	6.3383	7.4509	0.2597	-3.6239	10.1018	2.2978	-0.9112	-1.2883	10.165	-1.9724	6.5017	11.4874	0.9564	4.4496	11.8191	3.4616	9.6985	-0.3874	7.6318	0.4588	0.2073	0.4087	0.2914	0.4602	0.3939	0.3021	0.2576	0.3229	0.3665	0.4488	0.2644	0.4174	0.3375	0.2113	0.3518	0.275	0.3303	0.2294	6.3352	1.5762	3.9091	19	168	0.84372003903932	1	0
"169"	19	8	3	-4	-4.3	0	4	-1	1	1.227	-6.6316	-7.6981	-13.3877	-6.7301	-3.0634	-3.6192	-2.8628	5.5594	-6.4555	-1.9439	-7.3196	0.6468	-7.3228	-1.696	-8.9216	-10.5811	-1.1553	-8.231	4.5991	2.6268	0.3286	0.492	0.3653	0.4112	0.2489	0.2852	0.2199	0.3303	0.5078	0.2757	0.3922	0.321	0.416	0.2159	0.4274	0.2809	0.2112	0.3185	0.2819	6.3299	1.576	2.8107	19	169	0.204572165728774	0	1
"170"	19	45	3	-1	-1.075	1	20	-1	1	6.737	1.3987	-7.8944	0.6713	-4.2695	0.6848	-6.3212	-2.6001	-5.0363	8.1276	-4.6848	-5.3059	6.5745	-3.7538	8.6842	3.288	-0.7223	-0.8886	3.256	-5.9731	-4.8214	0.333	0.333	0.333	0.333	0.333	0.333	0.333	0.333	0.333	0.333	0.333	0.333	0.333	0.333	0.333	0.333	0.333	0.333	0.333	6.327	1.5634	8.3045	19	170	1.90761472197852	0	1
"171"	19	50	3	-4	-4.3	0	7	-1	1	1.87	-2.9176	0.9259	-2.6494	-11.8792	0.3114	6.0463	-6.2499	0.0065	-12.3208	-10.8472	-4.0576	-8.6201	-3.0724	-6.9892	-8.2351	-9.925	1.3838	-4.5155	-2.3816	1.301	0.3299	0.2486	0.4198	0.2011	0.3073	0.2229	0.2666	0.2049	0.3225	0.4947	0.3402	0.392	0.2511	0.4167	0.3641	0.5326	0.2881	0.2502	0.4822	6.3357	1.6988	3.571	19	171	0.625938430866495	0	1
"172"	19	41	3	2	2.15	0	8	1	1	2.529	1.0174	-5.3869	-0.6386	2.2186	-4.0045	5.4324	4.9342	9.2309	-2.4496	13.5134	6.8481	3.4754	2.1171	7.3079	-2.0261	3.3652	-2.1365	3.9865	-4.1135	0.2711	0.3942	0.2731	0.3897	0.2705	0.447	0.3979	0.2636	0.3137	0.3574	0.4502	0.2886	0.2476	0.2019	0.3348	0.2427	0.4757	0.3277	0.2999	0.3438	6.3201	1.6099	4.1466	19	172	0.927823967687828	1	0
"173"	19	27	3	2	2.15	0	5	1	1	1.46	6.2747	-2.3493	2.2958	6.4542	1.4341	1.5894	4.9325	-7.2576	4.0671	9.8547	-0.7661	6.0717	-0.4867	-8.4356	1.6909	-0.8814	8.7978	2.6915	9.4698	-1.106	0.2807	0.2431	0.4052	0.3094	0.2731	0.5058	0.401	0.2608	0.3284	0.4835	0.2001	0.3185	0.2817	0.3218	0.2151	0.2884	0.5112	0.2012	0.4924	6.3214	1.6692	3.1278	19	173	0.378436435720245	1	0
"174"	19	61	3	1	1.075	1	6	1	1	1.81	4.9864	-0.3781	4.1605	8.3131	2.9808	7.4059	-1.9693	-1.5057	0.172	-0.9302	9.3873	6.446	0.6782	-0.6834	-1.1735	2.5149	-3.1119	-12.2086	-5.4107	-0.0758	0.333	0.333	0.333	0.333	0.333	0.333	0.333	0.333	0.333	0.333	0.333	0.333	0.333	0.333	0.333	0.333	0.333	0.333	0.333	6.327	1.5317	3.3438	19	174	0.593326845277734	1	0
"175"	19	11	3	0	0	0	19	-1	0	6.299	-1.4255	-0.0988	-2.1954	-1.7921	-1.5971	3.2846	-7.632	-1.3711	0.0185	16.1559	-3.6704	-4.5709	-1.4486	-2.596	4.1515	3.1404	-2.8269	4.8522	3.008	-2.5164	0.2975	0.4125	0.5022	0.2244	0.4199	0.4688	0.3044	0.2163	0.2919	0.4725	0.3639	0.258	0.227	0.3524	0.4536	0.3524	0.2077	0.2857	0.2164	6.3275	1.4584	7.7666	19	175	1.84039089063979	0	1
"176"	19	36	3	-4	-4.3	0	5	-1	1	1.714	-6.3572	-7.0135	-12.0078	4.0745	-1.121	4.1046	0.9756	-3.6921	-7.3753	-5.7688	-0.849	-1.0293	-11.8082	-10.7413	1.3494	-9.6909	-6.6384	-5.3257	-1.2535	-4.684	0.4575	0.2382	0.3382	0.2384	0.4792	0.2191	0.4389	0.2396	0.4748	0.2542	0.2026	0.3644	0.2353	0.4196	0.5225	0.2293	0.2972	0.2216	0.4586	6.3292	1.6756	3.3984	19	176	0.538829820175588	0	1
"177"	19	32	3	0	0	1	18	1	1	5.857	3.994	-7.2462	-5.8174	-8.605	1.4174	3.8588	5.3666	-8.1322	-0.8421	-4.5842	2.1987	-0.2476	1.4762	2.1456	9.1143	3.7406	-0.6045	-4.7318	5.6005	0.6525	0.333	0.333	0.333	0.333	0.333	0.333	0.333	0.333	0.333	0.333	0.333	0.333	0.333	0.333	0.333	0.333	0.333	0.333	0.333	6.327	1.4322	7.3077	19	177	1.76763752710765	1	0
"178"	19	54	3	1	1.075	0	15	-1	0	4.842	2.9967	-2.4521	-7	8.6228	-1.4057	-2.4622	-6.5251	5.6904	-0.0056	1.3693	3.4142	6.3688	-1.2034	3.4273	-2.3241	8.7586	-5.9673	7.0202	-1.8391	5.5224	0.2533	0.4792	0.2721	0.2448	0.3281	0.4153	0.2352	0.3896	0.244	0.3827	0.3287	0.27	0.3385	0.2087	0.5159	0.4487	0.2653	0.4649	0.2485	6.3335	1.5008	6.3592	19	178	1.57732785851587	0	1
"179"	19	37	3	-2	-2.15	0	9	-1	1	3.09	-3.2723	-7.9149	-5.0016	0.549	5.7026	-6.3655	-1.0221	-4.765	-9.9087	3.1504	-4.3479	-1.42	-2.5306	4.5603	7.2071	1.7232	0.8172	-4.1741	-8.8884	-8.1577	0.2093	0.2879	0.4814	0.322	0.3814	0.2699	0.4381	0.3832	0.4887	0.3804	0.2223	0.2986	0.2587	0.3466	0.3745	0.2977	0.4143	0.2049	0.2694	6.3295	1.6194	4.7243	19	179	1.12817109090965	0	1
"180"	19	31	3	-1	-1.075	1	6	-1	1	1.736	-5.5703	-1.5323	3.3786	-2.3485	-7.8225	-1.0417	-6.7879	-5.3403	-0.9999	-7.809	1.4991	10.0151	2.7696	0.4069	-7.6879	9.3953	-0.6121	-1.1166	-0.694	0.8408	0.333	0.333	0.333	0.333	0.333	0.333	0.333	0.333	0.333	0.333	0.333	0.333	0.333	0.333	0.333	0.333	0.333	0.333	0.333	6.327	1.4626	3.203	19	180	0.551583616238158	0	1
"181"	19	35	3	4	4.3	1	11	1	1	3.332	3.3426	9.9721	2.9463	5.3156	-0.2278	3.8188	13.0647	0.3821	2.1764	13.9021	9.327	1.1734	2.0187	3.0365	12.6481	3.1786	0.0714	2.3151	-5.4641	4.0276	0.333	0.333	0.333	0.333	0.333	0.333	0.333	0.333	0.333	0.333	0.333	0.333	0.333	0.333	0.333	0.333	0.333	0.333	0.333	6.327	1.6993	5.0332	19	181	1.2035727243046	1	0
"182"	19	1	3	-4	-4.3	1	5	-1	1	1.475	-6.6983	-7.1172	1.9956	-7.5251	-5.3063	-6.0392	-6.0638	4.1768	1.6316	-5.5442	-6.4592	-7.1659	8.4726	-3.8303	-9.1758	-6.1692	-8.8885	-11.2906	-3.1771	-2.5842	0.333	0.333	0.333	0.333	0.333	0.333	0.333	0.333	0.333	0.333	0.333	0.333	0.333	0.333	0.333	0.333	0.333	0.333	0.333	6.327	1.551	3.0261	19	182	0.388657989791783	0	1
"183"	19	60	3	0	0	1	7	1	0	2.013	0.1975	10.7004	9.2361	-2.8686	-0.3419	-2.3546	-0.7467	-5.8449	-5.4073	-2.5541	1.9908	-5.0696	-1.3702	-3.1932	-5.8737	-3.6583	1.9964	0.9307	8.5663	4.7329	0.333	0.333	0.333	0.333	0.333	0.333	0.333	0.333	0.333	0.333	0.333	0.333	0.333	0.333	0.333	0.333	0.333	0.333	0.333	6.327	1.476	3.4971	19	183	0.699626146657654	1	0
"184"	19	21	3	4	4.3	1	8	1	1	2.511	7.4437	6.3164	-3.3254	4.5317	7.0281	-4.108	10.9312	-0.1839	8.6745	3.8553	2.144	11.2513	9.5536	8.5971	7.7781	-1.651	-4.3319	4.7155	3.6893	1.2169	0.333	0.333	0.333	0.333	0.333	0.333	0.333	0.333	0.333	0.333	0.333	0.333	0.333	0.333	0.333	0.333	0.333	0.333	0.333	6.327	1.4825	3.9947	19	184	0.920681080175448	1	0
"185"	19	51	3	-2	-2.15	0	12	1	0	3.828	1.6556	-1.7371	3.7561	-15.8884	-2.4272	1.425	-1.4794	-9.4969	-4.1992	0.9785	3.6207	5.1202	0.4127	-3.0506	-1.289	-2.8342	-3.7103	-8.5356	-4.9266	-2.2356	0.2388	0.4027	0.2977	0.4308	0.3971	0.2384	0.3676	0.2319	0.3847	0.3115	0.3603	0.4123	0.5191	0.3198	0.2139	0.3346	0.252	0.3886	0.2236	6.3254	1.4977	5.3286	19	185	1.34234247359071	1	0
"186"	19	64	3	-4	-4.3	0	16	-1	1	5.058	-0.1966	-6.8782	3.0437	-6.5513	4.0972	-0.2225	-7.3807	-2.13	-8.8855	-0.8999	-17.6807	-5.7394	-9.8713	-6.0894	-0.6512	-6.434	-2.7177	-4.265	1.0397	-6.4604	0.3505	0.2677	0.3584	0.3132	0.2237	0.4381	0.2668	0.2961	0.4511	0.5178	0.4058	0.2593	0.229	0.2546	0.2207	0.4819	0.4129	0.2515	0.3328	6.332	1.7103	6.7925	19	186	1.62097114824777	0	1
"187"	19	24	3	-1	-1.075	0	8	1	0	2.763	2.8057	-4.9065	-3.6928	0.3673	7.0056	-8.5654	1.3654	1.9261	-5.8926	0.2385	-9.3803	1.9835	-4.7457	-6.1446	1.9029	-4.1384	9.7294	1.9555	-4.5818	-0.1359	0.4461	0.4185	0.2019	0.3624	0.3177	0.2457	0.4227	0.4761	0.2057	0.2353	0.4307	0.2122	0.3034	0.5144	0.2565	0.2864	0.2327	0.3574	0.4108	6.3363	1.7185	4.4973	19	187	1.01631704594128	1	0
"188"	19	69	3	2	2.15	0	10	1	1	3.26	5.4342	7.1013	0.9615	7.6779	-4.3183	-0.0736	5.1028	4.0695	-2.5129	7.9763	-2.523	11.7231	0.9153	-4.8521	-2.3012	-1.0573	-1.9556	3.082	9.8562	-1.6993	0.2966	0.4657	0.2187	0.4305	0.3671	0.2995	0.2135	0.4315	0.2398	0.3533	0.3049	0.227	0.3249	0.2805	0.3243	0.3835	0.2515	0.4111	0.4987	6.3225	1.538	4.8109	19	188	1.18172719537862	1	0
"189"	19	66	3	-1	-1.075	0	5	-1	1	1.659	-3.2173	-11.5867	2.3956	-8.5909	2.3538	-0.1912	13.6767	-0.4023	-2.9694	-5.3455	-1.5682	-0.3468	-3.4407	-3.0938	1.18	-0.9587	3.8319	-3.3908	-0.0673	-0.7456	0.4081	0.4407	0.2747	0.2172	0.5245	0.3786	0.3202	0.1999	0.4496	0.3555	0.2192	0.4242	0.3781	0.2593	0.3461	0.4641	0.2197	0.2523	0.201	6.333	1.5874	3.2596	19	189	0.506215011208307	0	1
"190"	19	4	3	0	0	1	5	-1	1	1.613	-1.1325	-4.6088	-11.3134	-2.1978	-3.4538	-3.2366	5.8465	1.3601	-3.3627	2.2627	-1.4857	-3.0677	-2.6505	0.9317	0.5858	6.6201	8.0877	5.0524	8.8942	-1.3686	0.333	0.333	0.333	0.333	0.333	0.333	0.333	0.333	0.333	0.333	0.333	0.333	0.333	0.333	0.333	0.333	0.333	0.333	0.333	6.327	1.6132	3.2304	19	190	0.478095799143072	0	1
"191"	19	48	3	2	2.15	1	16	1	1	5.147	3.5026	1.9702	0.1657	5.1389	4.8151	8.6133	6.2056	-2.7166	0.5248	-7.2687	-4.2269	6.157	-8.889	8.5774	1.2033	6.9032	3.2796	7.6981	-0.1775	2.9588	0.333	0.333	0.333	0.333	0.333	0.333	0.333	0.333	0.333	0.333	0.333	0.333	0.333	0.333	0.333	0.333	0.333	0.333	0.333	6.327	1.6193	6.7807	19	191	1.63841402067062	1	0
"192"	19	39	3	0	0	0	6	1	1	1.567	1.875	1.3249	-2.3592	0.5762	1.8038	4.9101	2.8532	-5.3289	-12.0391	6.1049	4.1316	-0.342	-1.3751	0.2976	3.6699	-6.9819	6.4366	-9.573	2.2523	3.2778	0.3416	0.2695	0.2158	0.3234	0.3522	0.2026	0.3032	0.3327	0.5134	0.4286	0.214	0.4956	0.29	0.3415	0.371	0.3163	0.4321	0.3806	0.2093	6.3333	1.6351	3.201	19	192	0.449162963373884	1	0
"193"	19	49	3	4	4.3	1	5	1	1	1.369	7.9834	2.0669	11.647	7.7981	5.4664	5.1699	3.6123	5.1363	8.5403	-3.2258	1.7147	-6.8104	5.6418	-1.3793	10.4197	3.1985	10.9046	4.8112	5.0667	-3.6331	0.333	0.333	0.333	0.333	0.333	0.333	0.333	0.333	0.333	0.333	0.333	0.333	0.333	0.333	0.333	0.333	0.333	0.333	0.333	6.327	1.6106	2.9861	19	193	0.314080546306312	1	0
"194"	19	68	3	1	1.075	0	18	1	1	5.841	-1.0908	4.2159	1.2597	4.1749	-3.5373	-7.4436	-1.7892	-5.8328	6.3605	6.1334	8.6265	1.2078	5.6725	-5.5827	0.3073	1.0868	3.1218	6.8966	5.8633	-6.965	0.4989	0.3124	0.4743	0.2296	0.2736	0.3126	0.2381	0.4127	0.3599	0.2231	0.4364	0.3606	0.234	0.263	0.3463	0.2823	0.404	0.2379	0.4273	6.327	1.7052	7.5579	19	194	1.76490201505817	1	0
"195"	19	58	3	-2	-2.15	1	4	-1	1	1.163	-4.2671	-4.3498	-10.0249	-2.9809	0.4347	1.5829	2.2291	-4.6479	1.9076	-3.7294	-2.1091	0.2572	-0.3355	-7.5017	-6.2967	-4.1989	12.9886	-8.6539	-4.8602	1.8233	0.333	0.333	0.333	0.333	0.333	0.333	0.333	0.333	0.333	0.333	0.333	0.333	0.333	0.333	0.333	0.333	0.333	0.333	0.333	6.327	1.4781	2.6472	19	195	0.151002873536527	0	1
"196"	19	15	3	-4	-4.3	1	14	-1	1	4.634	-2.0354	-10.0574	-4.5036	0.2238	-1.4883	-9.706	-5.3909	-5.1094	5.7493	-9.3709	-9.1864	4.1411	0.662	-7.3498	-3.5999	-12.2877	-2.7454	0.6305	-10.7318	-4.9137	0.333	0.333	0.333	0.333	0.333	0.333	0.333	0.333	0.333	0.333	0.333	0.333	0.333	0.333	0.333	0.333	0.333	0.333	0.333	6.327	1.5279	6.168	19	196	1.53342042601018	0	1
"197"	19	63	3	4	4.3	1	5	1	1	1.557	0.5628	-1.1083	2.4709	14.1419	4.6824	3.3636	9.4476	1.991	6.5943	-3.4864	-0.7602	9.8274	5.5378	5.8186	6.9444	5.1242	-1.4933	-3.7224	9.7608	9.4156	0.333	0.333	0.333	0.333	0.333	0.333	0.333	0.333	0.333	0.333	0.333	0.333	0.333	0.333	0.333	0.333	0.333	0.333	0.333	6.327	1.5451	3.1242	19	197	0.442760892851861	1	0
"198"	19	46	3	0	0	1	6	1	0	1.738	4.1776	2.2403	-2.346	-0.3647	0.8205	9.6215	1.7885	-11.2966	1.2455	7.1697	-4.5939	-0.9108	-2.0741	-3.8113	-1.5469	0.3091	8.1084	-2.1539	-6.0526	-2.2103	0.333	0.333	0.333	0.333	0.333	0.333	0.333	0.333	0.333	0.333	0.333	0.333	0.333	0.333	0.333	0.333	0.333	0.333	0.333	6.327	1.687	3.4386	19	198	0.5527350268432	1	0
"199"	19	53	3	0	0	0	5	-1	0	1.348	-4.0291	-4.6785	0.2744	-3.2837	3.6386	5.8571	0.7101	-0.9363	-9.852	-0.9935	-2.3944	6.0534	6.2554	-2.3493	7.9585	-4.2741	9.3267	-5.33	-2.535	0.2811	0.204	0.4733	0.3428	0.2976	0.3627	0.4427	0.3422	0.2341	0.3369	0.2152	0.4754	0.3493	0.2442	0.3754	0.3295	0.5	0.353	0.2084	0.2421	6.3289	1.5847	2.9484	19	199	0.298622012490115	0	1
"200"	19	57	3	-4	-4.3	1	11	-1	1	3.412	-0.4806	-3.534	-1.9283	-2.2272	-8.605	-3.4827	-0.0679	2.5653	1.5952	-9.2506	-4.3768	-5.4484	4.7195	-9.2412	-17.1875	-6.9154	-5.7171	-1.2133	-6.3202	-7.2805	0.333	0.333	0.333	0.333	0.333	0.333	0.333	0.333	0.333	0.333	0.333	0.333	0.333	0.333	0.333	0.333	0.333	0.333	0.333	6.327	1.7003	5.1298	19	200	1.22729862962943	0	1
"201"	19	55	3	2	2.15	0	6	1	1	2.073	7.0443	0.5578	3.9428	6.4585	0.3583	0.2907	11.2333	6.7111	0.416	6.5489	-7.9583	0.9472	8.206	-3.3464	-0.4444	5.6232	-0.1271	-5.7742	-3.0583	3.7979	0.4116	0.2462	0.311	0.4623	0.2196	0.4619	0.2619	0.3258	0.2657	0.3762	0.3398	0.3867	0.2173	0.4081	0.4777	0.2258	0.4427	0.2106	0.2846	6.3354	1.5413	3.6237	19	201	0.728996833453643	1	0
"202"	19	12	3	1	1.075	0	6	1	1	1.814	2.6469	-0.9101	4.3652	-5.2648	0.7759	0.1162	-2.8365	2.962	5.7233	7.3921	-11.8698	-4.6034	0.3116	1.9691	8.7135	4.0258	-3.4216	-2.4189	6.5916	5.4347	0.3259	0.4152	0.4811	0.2177	0.2827	0.4455	0.2398	0.3455	0.2055	0.4476	0.398	0.2841	0.3113	0.2284	0.317	0.2364	0.5039	0.2392	0.4094	6.3343	1.5145	3.3313	19	202	0.595534351692945	1	0
"203"	19	43	3	-4	-4.3	1	7	-1	1	2.279	0.4513	-7.3017	-4.222	4.0695	-8.1517	-2.4226	-0.1207	-2.154	-4.6344	-0.9326	-7.376	0.1803	4.2258	-8.3508	-5.6844	-4.898	-1.9192	-15.6011	-12.8857	-7.7557	0.333	0.333	0.333	0.333	0.333	0.333	0.333	0.333	0.333	0.333	0.333	0.333	0.333	0.333	0.333	0.333	0.333	0.333	0.333	6.327	1.6923	3.9795	19	203	0.823736750263547	0	1
"204"	19	67	3	0	0	0	8	1	1	2.745	-1.968	4.6897	3.216	-4.0694	0.2352	-7.1174	2.6939	-1.969	7.9909	-7.5905	-4.5894	1.4314	-9.9446	2.9635	2.8661	7.0613	5.0325	2.5888	-0.5086	-1.8288	0.3427	0.3791	0.2968	0.4719	0.3162	0.2151	0.4377	0.3978	0.2399	0.3361	0.2462	0.4028	0.2469	0.4446	0.4171	0.257	0.3371	0.2107	0.3307	6.3263	1.5832	4.3288	19	204	1.00978107496149	1	0
"205"	19	28	3	4	4.3	0	5	1	1	1.583	4.8724	10.9789	5.8777	-1.2988	9.9647	9.2255	-3.2891	3.8019	9.038	-6.06	-0.4256	2.7941	12.8971	7.5229	2.1519	4.5798	-1.0171	8.6048	4.2293	2.5	0.4509	0.3615	0.2728	0.2362	0.3571	0.26	0.4323	0.5096	0.4489	0.2725	0.3244	0.2547	0.2252	0.2739	0.3365	0.214	0.2868	0.5317	0.2777	6.3268	1.6498	3.2334	19	205	0.459321780898875	1	0
"206"	19	40	3	1	1.075	0	7	-1	0	2.258	-2.1315	1.8774	-7.0483	1.362	5.8396	0.4687	2.3021	8.0571	8.2856	-5.9825	-1.9881	-4.0142	-1.5174	1.8106	-0.5721	-3.0448	10.7844	4.129	-3.8064	5.3552	0.4243	0.3952	0.3204	0.4107	0.2835	0.3395	0.2093	0.2673	0.2136	0.3578	0.2139	0.3073	0.4323	0.3331	0.3831	0.429	0.2433	0.5238	0.24	6.3272	1.6424	3.9084	19	206	0.81447946572747	0	1
"207"	19	18	3	0	0	1	6	-1	1	1.914	-4.232	4.9234	-4.0053	-0.288	-5.0635	-3.2018	10.128	2.6254	9.0437	0.9761	1.1366	-4.5406	-9.2165	2.4157	1.8524	-1.0401	0.5375	-7.3132	4.9767	0.4481	0.333	0.333	0.333	0.333	0.333	0.333	0.333	0.333	0.333	0.333	0.333	0.333	0.333	0.333	0.333	0.333	0.333	0.333	0.333	6.327	1.5406	3.4647	19	207	0.649195293030763	0	1
"208"	19	7	3	4	4.3	1	6	1	1	1.822	2.5288	3.5104	5.8023	6.6255	17.1884	1.6601	-2.3645	4.8476	1.9568	4.4262	-2.1481	-2.2306	4.0328	6.7966	8.4121	9.1285	3.2453	-3.2717	4.0454	10.5362	0.333	0.333	0.333	0.333	0.333	0.333	0.333	0.333	0.333	0.333	0.333	0.333	0.333	0.333	0.333	0.333	0.333	0.333	0.333	6.327	1.6996	3.5229	19	208	0.599934798837767	1	0
"209"	19	2	3	-2	-2.15	1	4	-1	1	1.242	-1.27	-5.0848	-4.076	-8.6986	-1.794	-1.1222	0.5708	-4.7966	1.3001	4.3748	-2.1893	-1.5158	-11.4812	-5.7276	0.7407	-3.1676	13.2909	-3.8212	-3.5989	-3.4085	0.333	0.333	0.333	0.333	0.333	0.333	0.333	0.333	0.333	0.333	0.333	0.333	0.333	0.333	0.333	0.333	0.333	0.333	0.333	6.327	1.7171	2.9759	19	209	0.216722983511287	0	1
"210"	19	23	3	-2	-2.15	0	5	1	0	1.627	-2.0074	5.583	-4.6756	4.4114	2.2008	-9.9488	1.4818	3.8987	-9.0158	3.8578	2.3344	-6.7746	-2.3096	-0.3989	0.1084	-6.3325	-3.921	-5.4027	-7.9983	-7.0469	0.5036	0.2408	0.5206	0.3374	0.2871	0.2488	0.3993	0.27	0.4316	0.2078	0.3688	0.4314	0.275	0.3146	0.3715	0.2427	0.2814	0.3778	0.2151	6.3255	1.4319	3.0774	19	210	0.486737828236901	1	0
"211"	19	51	4	-2	-2.15	0	15	-1	1	5.002	-3.2465	-2.0274	-1.0052	3.1339	-3.8903	6.485	0.317	-2.9853	-2.8722	-9.0681	1.6229	-3.3914	1.813	0.3563	1.3119	1.6574	-3.3701	-2.6435	-17.3364	-7.9414	0.3054	0.3895	0.2664	0.4616	0.3269	0.4567	0.245	0.2155	0.4096	0.2505	0.507	0.2962	0.3738	0.2094	0.5324	0.3344	0.2491	0.2179	0.2804	6.3277	1.6601	6.6698	19	211	1.60983783245543	0	1
"212"	19	9	4	-2	-2.15	0	3	-1	1	1.065	-2.6	-9.5521	-2.8637	3.4413	-2.4464	8.3995	0.0775	1.5578	-11.6881	0.2588	-9.2856	3.2069	2.6482	-4.2029	0.3946	-8.0699	-3.2916	-2.5948	0.6783	-5.5538	0.3432	0.4715	0.3353	0.3929	0.2783	0.3566	0.4052	0.2988	0.3401	0.2311	0.3853	0.3411	0.2177	0.454	0.2277	0.4	0.2541	0.3865	0.205	6.3244	1.6676	2.7487	19	212	0.0629747991613884	0	1
"213"	19	65	4	-2	-2.15	0	17	-1	1	5.369	-3.5672	-2.0531	-2.5797	-9.6832	8.1796	0.9437	6.5857	-0.1396	-4.0636	0.9152	0.0698	2.6064	-4.7063	-7.7085	2.5519	-3.8364	-3.3425	-9.2939	-9.8584	-4.696	0.3447	0.295	0.4909	0.2353	0.3517	0.2423	0.3118	0.2043	0.3892	0.4383	0.3807	0.271	0.3077	0.4476	0.2166	0.3916	0.2734	0.2269	0.5012	6.3202	1.4414	6.8193	19	213	1.68064167144043	0	1
"214"	19	68	4	1	1.075	0	13	1	1	4.076	1.3871	0.3862	0.7168	2.901	-0.5776	-2.9716	2.2887	-4.0558	7.2062	13.0247	3.4328	-5.5749	1.6774	-0.3599	1.946	5.7099	-3.3488	-9.9444	0.765	7.4604	0.2121	0.4741	0.2765	0.4374	0.3127	0.4477	0.2335	0.3344	0.2719	0.2062	0.445	0.3784	0.4093	0.3703	0.3157	0.489	0.2219	0.2565	0.2258	6.3181	1.4675	5.5436	19	214	1.40511611536048	1	0
"215"	19	34	4	2	2.15	1	4	1	1	1.141	3.485	5.7415	5.135	5.6706	0.0982	0.4687	6.159	-8.3319	3.2232	6.2227	1.17	-9.5569	8.9676	2.8201	7.1283	3.099	-2.7133	0.9762	-2.3776	7.5729	0.333	0.333	0.333	0.333	0.333	0.333	0.333	0.333	0.333	0.333	0.333	0.333	0.333	0.333	0.333	0.333	0.333	0.333	0.333	6.327	1.4068	2.5579	19	215	0.131905070879939	1	0
"216"	19	16	4	-2	-2.15	1	9	-1	1	2.901	-2.7314	-4.4513	-1.8637	-4.8462	1.2703	-1.1627	2.0303	-3.7267	9.1373	-5.0382	6.7156	-10.9377	-5.1586	0.1443	-3.3463	-3.1774	-1.9593	-6.223	-10.5618	4.2291	0.333	0.333	0.333	0.333	0.333	0.333	0.333	0.333	0.333	0.333	0.333	0.333	0.333	0.333	0.333	0.333	0.333	0.333	0.333	6.327	1.6715	4.5681	19	216	1.06505550513927	0	1
"217"	19	38	4	-1	-1.075	0	8	-1	1	2.544	-5.6125	6.7911	5.263	-5.8899	-4.4539	-10.5758	-4.0554	-3.9343	1.515	-4.1096	-2.7375	0.8255	9.8515	0.7418	-4.0786	-0.8135	-2.6233	4.7222	1.3558	-1.7034	0.289	0.2309	0.5019	0.3021	0.2029	0.3561	0.4336	0.2614	0.3303	0.2099	0.4636	0.3736	0.2098	0.2947	0.2134	0.3267	0.3521	0.4413	0.53	6.3235	1.5556	4.0945	19	217	0.933737645477876	0	1
"218"	19	8	4	-4	-4.3	0	6	-1	1	1.768	0.3271	-1.8188	-6.31	-12.1565	0.616	-7.0158	-1.0591	1.5708	-1.2836	-7.3602	-2.2504	-9.0448	-12.9349	-1.236	0.4923	2.8843	-10.8041	-10.541	-1.7563	-4.951	0.2016	0.391	0.2909	0.5214	0.2204	0.3821	0.2758	0.3769	0.502	0.2273	0.3798	0.2977	0.4752	0.2881	0.2117	0.4217	0.2643	0.3966	0.2098	6.3344	1.6013	3.3689	19	218	0.569848964215452	0	1
"219"	19	59	4	-1	-1.075	1	11	-1	1	3.531	-4.5896	5.3899	-7.4899	5.3477	0.2612	-9.0081	-4.588	-3.0365	-4.3822	-3.0917	2.5856	6.6994	-5.2768	-5.7838	1.4962	1.8254	-4.831	-1.0275	-2.3471	9.747	0.333	0.333	0.333	0.333	0.333	0.333	0.333	0.333	0.333	0.333	0.333	0.333	0.333	0.333	0.333	0.333	0.333	0.333	0.333	6.327	1.4215	4.9653	19	219	1.26158111694625	0	1
"220"	19	56	4	4	4.3	0	5	1	1	1.284	4.8049	6.4905	13.2115	4.8434	4.6115	1.462	5.8732	0.3667	13.0327	0.8838	10.492	5.229	-6.807	0.3992	3.991	-0.8166	-0.5659	5.8029	2.7692	10.8615	0.3387	0.2061	0.3402	0.2199	0.2842	0.231	0.4656	0.2531	0.4324	0.3797	0.2544	0.2891	0.4611	0.2438	0.4038	0.4457	0.3195	0.3502	0.4162	6.3347	1.6657	2.9682	19	220	0.249980205267769	1	0
"221"	19	19	4	1	1.075	1	5	1	1	1.657	2.4981	7.8172	-11.6719	-2.7464	-2.2594	-1.4172	4.0231	4.4466	7.3876	9.6979	-1.2374	-0.0671	1.6933	1.9468	3.5815	-4.4021	7.5206	-2.1767	-1.572	-1.2687	0.333	0.333	0.333	0.333	0.333	0.333	0.333	0.333	0.333	0.333	0.333	0.333	0.333	0.333	0.333	0.333	0.333	0.333	0.333	6.327	1.6524	3.3246	19	221	0.505008738444426	1	0
"222"	19	10	4	-1	-1.075	0	7	1	0	1.894	0.3273	-2.8146	-0.3977	5.313	-0.7233	-2.2461	-4.3829	-8.1461	-2.6068	-5.7957	-3.8507	5.4006	7.8862	8.2629	-2.1643	4.0681	-5.324	-4.3177	-7.8918	-4.0647	0.2939	0.2554	0.4935	0.2125	0.323	0.2821	0.3582	0.5134	0.35	0.436	0.2977	0.2469	0.215	0.4636	0.3525	0.2614	0.421	0.3145	0.2378	6.3283	1.6165	3.5286	19	222	0.638690994763886	1	0
"223"	19	25	4	0	0	0	19	1	1	6.319	-1.3565	7.8783	-4.2072	3.7645	-2.5442	4.052	-2.7472	-9.5714	0.7253	-3.2251	3.8516	-5.0107	2.575	-5.5115	10.533	-0.866	5.0993	3.5147	-5.1824	-0.751	0.3291	0.4723	0.2055	0.4149	0.2417	0.2763	0.4944	0.4448	0.2265	0.4787	0.2724	0.4195	0.2649	0.3383	0.3643	0.2112	0.2541	0.4207	0.2062	6.336	1.595	7.9194	19	223	1.84356096779132	1	0
"224"	19	47	4	1	1.075	1	9	1	1	2.704	-2.431	-6.3311	-0.653	1.4307	12.451	-1.3376	-0.747	-1.6669	1.9361	-7.1883	-4.1708	-2.2372	3.4439	-1.0813	5.5256	5.4418	6.3887	9.0197	1.3708	1.7426	0.333	0.333	0.333	0.333	0.333	0.333	0.333	0.333	0.333	0.333	0.333	0.333	0.333	0.333	0.333	0.333	0.333	0.333	0.333	6.327	1.7277	4.4379	19	224	0.994732158180718	1	0
"225"	19	12	4	1	1.075	0	5	1	1	1.66	-1.4682	2.8753	-3.7444	2.8241	9.9343	2.7796	-6.8898	3.1723	7.6815	-2.949	4.3185	3.3163	4.2868	-0.4249	1.5697	-5.239	8.8793	1.3517	-7.5139	-3.6581	0.2522	0.4412	0.4845	0.2856	0.2517	0.5085	0.2331	0.2979	0.3609	0.278	0.4224	0.3076	0.4033	0.2666	0.2407	0.3683	0.2209	0.4442	0.2689	6.3364	1.5357	3.1936	19	225	0.506817602368452	1	0
"226"	19	31	4	-1	-1.075	1	11	-1	1	3.624	-2.1049	-3.122	-2.4815	2.6088	-3.8769	-4.623	-7.9214	0.0142	-11.2275	9.6936	-5.5383	5.5095	-0.385	0.36	-3.2568	2.8733	4.5198	-4.6465	5.2993	-2.3681	0.333	0.333	0.333	0.333	0.333	0.333	0.333	0.333	0.333	0.333	0.333	0.333	0.333	0.333	0.333	0.333	0.333	0.333	0.333	6.327	1.689	5.3251	19	226	1.28757838818073	0	1
"227"	19	53	4	0	0	0	7	-1	1	2.098	-1.813	0.4266	-0.3015	2.4775	1.3655	-4.0591	6.2918	-0.3415	-0.1894	-5.7876	-2.0056	0.6169	13.983	-5.8	-1.6303	0.1469	4.5645	-3.8693	-9.2345	3.5743	0.4681	0.3217	0.3561	0.2306	0.4418	0.206	0.4325	0.2885	0.3543	0.2141	0.3848	0.4993	0.5248	0.2455	0.2824	0.2437	0.2873	0.3382	0.2147	6.3343	1.4457	3.5489	19	227	0.740984509974105	0	1
"228"	19	44	4	-2	-2.15	1	5	-1	1	1.498	0.8453	2.27	-3.4781	-6.6217	6.9918	-2.8599	-10.5924	7.345	0.8407	4.4521	-4.7838	-3.5917	-5.5146	-9.1775	-2.0424	1.2969	-5.5326	-6.0566	-3.4672	-3.9689	0.333	0.333	0.333	0.333	0.333	0.333	0.333	0.333	0.333	0.333	0.333	0.333	0.333	0.333	0.333	0.333	0.333	0.333	0.333	6.327	1.5742	3.0822	19	228	0.404130885095028	0	1
"229"	19	4	4	0	0	1	5	-1	1	1.657	-4.7038	-3.3949	4.7925	-5.9625	5.2437	1.5411	3.0213	-6.3244	1.123	6.1995	1.9211	2.154	-2.891	1.869	-11.0663	5.2106	-3.5481	-3.9145	8.7103	1.9438	0.333	0.333	0.333	0.333	0.333	0.333	0.333	0.333	0.333	0.333	0.333	0.333	0.333	0.333	0.333	0.333	0.333	0.333	0.333	6.327	1.4793	3.1413	19	229	0.505008738444426	0	1
"230"	19	20	4	2	2.15	1	6	-1	0	1.79	-0.3519	0.5966	0.669	-1.7368	8.4005	2.0766	-3.7148	9.6669	9.7025	1.9874	10.8349	6.4156	3.3785	-1.1493	4.4575	-2.8218	-6.0059	2.1225	3.9577	-4.9628	0.333	0.333	0.333	0.333	0.333	0.333	0.333	0.333	0.333	0.333	0.333	0.333	0.333	0.333	0.333	0.333	0.333	0.333	0.333	6.327	1.4009	3.2077	19	230	0.582215619852664	0	1
"231"	19	50	4	-4	-4.3	0	7	-1	1	2.435	-6.0451	-5.0594	-8.4835	5.1142	0.1802	-4.1728	-9.2481	-16.2715	0.7616	-5.6193	-1.811	-6.3688	6.0344	-1.4244	-2.4818	-6.2302	-8.0494	-4.4054	-6.0258	-5.2612	0.3319	0.2606	0.4332	0.3247	0.4227	0.2952	0.3976	0.2434	0.2866	0.3332	0.2253	0.3773	0.4045	0.2154	0.2851	0.3529	0.2921	0.3754	0.4709	6.3279	1.5907	4.0354	19	231	0.889946756534553	0	1
"232"	19	17	4	-1	-1.075	1	11	1	0	3.459	1.759	2.1446	0.1607	-6.6216	-11.6161	0.3733	5.4535	-2.1125	0.9093	8.065	-3.6494	-6.7701	3.2406	-7.7651	3.241	-6.9425	3.0795	-0.511	-1.8093	-0.6862	0.333	0.333	0.333	0.333	0.333	0.333	0.333	0.333	0.333	0.333	0.333	0.333	0.333	0.333	0.333	0.333	0.333	0.333	0.333	6.327	1.4043	4.8768	19	232	1.24097952995503	1	0
"233"	19	57	4	-4	-4.3	1	8	-1	1	2.459	-7.4582	-15.1401	-0.9734	-6.3228	1.0359	-2.305	-10.4883	-11.404	-2.1315	-6.5566	-4.3346	-5.1575	6.6542	-5.5968	-2.2447	-7.7399	1.3592	-2.927	-6.5973	0.7924	0.333	0.333	0.333	0.333	0.333	0.333	0.333	0.333	0.333	0.333	0.333	0.333	0.333	0.333	0.333	0.333	0.333	0.333	0.333	6.327	1.4104	3.8764	19	233	0.899754763234056	0	1
"234"	19	52	4	-1	-1.075	0	11	1	0	3.616	3.0536	5.5508	-6.8594	2.3754	-12.345	2.0702	-1.9568	8.0383	-5.6618	3.9613	-1.6944	0.6353	-5.1312	-5.2358	0.6236	-7.3125	2.2463	1.9845	-3.7358	-3.6486	0.3563	0.4964	0.2974	0.2104	0.4397	0.2574	0.2935	0.5076	0.2662	0.3014	0.4384	0.2792	0.2514	0.2121	0.238	0.2021	0.3883	0.3631	0.5248	6.3237	1.7194	5.3503	19	234	1.28536844252993	1	0
"235"	19	54	4	1	1.075	0	16	1	1	5.274	-0.2598	5.9504	7.7995	-3.5164	-4.3663	-9.5847	5.6487	6.4891	-6.7688	4.5651	-3.1723	2.5706	-2.2575	5.3653	6.8372	4.5296	2.3723	-1.3541	4.3888	-2.4253	0.3023	0.3653	0.4963	0.2615	0.3817	0.2077	0.2474	0.2119	0.5122	0.3342	0.3753	0.3434	0.2569	0.4974	0.3464	0.2094	0.3139	0.4025	0.2645	6.3302	1.6559	6.941	19	235	1.66278908793109	1	0
"236"	19	70	4	4	4.3	0	5	1	1	1.371	7.6599	2.3472	-4.1606	8.9752	3.9682	5.8276	12.3902	5.7311	-1.9356	3.8459	-2.2489	3.3203	2.3677	3.2075	3.3555	-3.3304	2.3241	14.6343	8.2939	10.6896	0.3373	0.2838	0.2463	0.4109	0.2111	0.3559	0.3152	0.4029	0.3584	0.2437	0.3569	0.4426	0.2922	0.4923	0.2724	0.3316	0.4031	0.2559	0.3047	6.3173	1.4084	2.7878	19	236	0.315540400580177	1	0
"237"	19	62	4	2	2.15	1	8	1	1	2.421	2.4951	3.8264	9.2662	5.4342	-2.7246	-2.2603	2.7665	4.9992	-2.207	2.6285	10.2673	6.1534	4.1237	0.7297	-8.2752	-6.7855	9.3542	1.0339	-0.0556	3.8064	0.333	0.333	0.333	0.333	0.333	0.333	0.333	0.333	0.333	0.333	0.333	0.333	0.333	0.333	0.333	0.333	0.333	0.333	0.333	6.327	1.4905	3.9221	19	237	0.884180677955921	1	0
"238"	19	27	4	2	2.15	0	9	1	1	2.7	4.1729	-3.3059	8.2195	1.9245	4.2468	-4.883	2.3766	6.7199	2.518	-1.4279	-1.1311	-4.2479	3.0981	9.7502	4.7568	-6.4826	-0.0354	1.1324	3.3531	12.7393	0.4891	0.4593	0.293	0.208	0.4016	0.2626	0.2233	0.2497	0.4617	0.2562	0.3462	0.2894	0.3468	0.2749	0.2215	0.5285	0.4501	0.2366	0.3273	6.326	1.7077	4.4172	19	238	0.993251773010283	1	0
"239"	19	13	4	2	2.15	0	5	1	1	1.708	4.6347	7.4717	-5.2188	-0.0282	6.9104	3.6874	-4.2712	0.3869	5.6874	-4.6775	5.0404	1.5218	6.3472	9.9089	-3.9603	7.1645	8.9534	-2.9862	-2.8899	1.278	0.2604	0.2009	0.5041	0.4778	0.3732	0.2359	0.4363	0.5145	0.2828	0.3332	0.2454	0.2134	0.3109	0.263	0.2964	0.3934	0.2123	0.2501	0.5235	6.3274	1.5697	3.2754	19	239	0.535323095366378	1	0
"240"	19	49	4	4	4.3	1	10	1	1	3.036	1.7955	7.1502	2.0759	1.5854	5.5493	-0.0959	5.9192	9.9122	9.4485	-4.3532	11.0795	-0.5421	-5.59	1.4491	9.313	5.0551	12.2027	8.267	3.9722	2.0124	0.333	0.333	0.333	0.333	0.333	0.333	0.333	0.333	0.333	0.333	0.333	0.333	0.333	0.333	0.333	0.333	0.333	0.333	0.333	6.327	1.4079	4.4536	19	240	1.11054085953338	1	0
"241"	19	5	4	1	1.075	1	7	1	1	2.122	-2.8717	3.4991	-2.6154	-2.3907	-7.5101	5.6659	3.2922	4.8101	-2.5716	11.422	7.6412	1.8081	2.7043	-1.3046	-5.0218	0.4001	6.6619	-4.3895	-3.1251	5.7278	0.333	0.333	0.333	0.333	0.333	0.333	0.333	0.333	0.333	0.333	0.333	0.333	0.333	0.333	0.333	0.333	0.333	0.333	0.333	6.327	1.6247	3.7558	19	241	0.752359040191791	1	0
"242"	19	28	4	4	4.3	0	6	1	1	1.783	2.927	-2.8603	4.728	9.1887	11.426	5.2018	12.0317	3.3593	10.8143	-4.124	2.3552	-1.2465	4.5763	2.411	7.7812	-3.9415	2.2662	6.685	10.0609	3.2591	0.2543	0.2064	0.4034	0.279	0.4406	0.3193	0.3613	0.4447	0.3456	0.2215	0.3437	0.2867	0.4223	0.39	0.4387	0.2404	0.2876	0.2608	0.3711	6.3173	1.7034	3.5005	19	242	0.578297338881003	1	0
"243"	19	15	4	-4	-4.3	1	8	-1	1	2.348	0.2015	-4.8516	1.4312	-10.7644	-9.1239	-9.5317	-0.6933	-8.7117	0.9416	-3.9942	1.1434	-1.2434	-12.8818	-4.7107	-0.4542	4.6491	-11.5942	-3.9624	-3.9782	-7.8867	0.333	0.333	0.333	0.333	0.333	0.333	0.333	0.333	0.333	0.333	0.333	0.333	0.333	0.333	0.333	0.333	0.333	0.333	0.333	6.327	1.6063	3.9652	19	243	0.85356390196585	0	1
"244"	19	30	4	-2	-2.15	1	13	-1	1	4.219	0.0348	3.6577	-9.4867	7.9818	-0.0069	-5.9906	-6.4292	-1.7242	-7.8328	-3.555	-1.9879	-5.2196	-4.1347	-4.8462	5.7874	4.8289	-7.0216	-2.4158	1.682	-7.0893	0.333	0.333	0.333	0.333	0.333	0.333	0.333	0.333	0.333	0.333	0.333	0.333	0.333	0.333	0.333	0.333	0.333	0.333	0.333	6.327	1.6137	5.8533	19	244	1.4395981331422	0	1
"245"	19	43	4	-4	-4.3	1	11	-1	1	3.554	-0.244	-6.1067	-2.8757	-3.1847	-2.0891	-7.3381	-0.8453	-9.0749	-4.3093	-8.0128	-1.3397	-11.531	-1.9103	-10.1622	-0.5532	-6.7571	-7.5859	-5.1429	-8.9553	11.4199	0.333	0.333	0.333	0.333	0.333	0.333	0.333	0.333	0.333	0.333	0.333	0.333	0.333	0.333	0.333	0.333	0.333	0.333	0.333	6.327	1.5932	5.1552	19	245	1.26807372973246	0	1
"246"	19	7	4	4	4.3	1	6	1	1	1.804	9.0706	3.7835	-1.876	3.4664	5.8583	2.8826	4.0072	12.2724	5.9701	-2.5208	3.8279	4.1424	3.3457	2.925	-0.8683	19.6986	4.5063	-0.2631	3.2505	1.5872	0.333	0.333	0.333	0.333	0.333	0.333	0.333	0.333	0.333	0.333	0.333	0.333	0.333	0.333	0.333	0.333	0.333	0.333	0.333	6.327	1.6404	3.4552	19	246	0.590006421640432	1	0
"247"	19	40	4	1	1.075	0	10	1	1	3.007	2.2051	6.8399	-3.0145	-0.1186	-8.0504	0.4604	0.6307	-1.4841	4.0407	7.1243	2.5759	6.6354	-5.215	-4.6667	7.1316	3.8764	4.846	7.8614	-3.503	-6.2037	0.2667	0.3118	0.2179	0.2847	0.3191	0.4794	0.2183	0.3259	0.3575	0.5021	0.4045	0.2616	0.4481	0.381	0.2868	0.2006	0.476	0.266	0.3277	6.3359	1.4945	4.5073	19	247	1.10094290400639	1	0
"248"	19	29	4	-4	-4.3	1	4	-1	1	1.298	-0.8418	-5.5896	-12.644	1.0332	-5.9905	6.0831	3.8775	-9.0702	-3.4961	-6.8994	-0.0184	-4.8428	-5.9817	-5.9582	-5.5839	0.8554	-1.4242	-11.3138	-8.1942	-8.2982	0.333	0.333	0.333	0.333	0.333	0.333	0.333	0.333	0.333	0.333	0.333	0.333	0.333	0.333	0.333	0.333	0.333	0.333	0.333	6.327	1.4722	2.7818	19	248	0.260824618281898	0	1
"249"	19	61	4	1	1.075	1	6	1	1	1.971	3.6024	-4.942	-4.1099	3.6015	11.1347	9.6483	0.075	9.157	-3.5466	-3.2633	0.5988	3.7301	-3.8751	-0.4069	6.0072	3.863	-2.753	-3.9753	-2.6001	0.8498	0.333	0.333	0.333	0.333	0.333	0.333	0.333	0.333	0.333	0.333	0.333	0.333	0.333	0.333	0.333	0.333	0.333	0.333	0.333	6.327	1.5485	3.522	19	249	0.678541028170583	1	0
"250"	19	24	4	-1	-1.075	0	8	-1	1	2.052	1.0062	-2.943	-2.4689	-1.0388	-9.4041	5.0929	-1.5547	-12.1058	-5.7578	-3.8821	-3.1285	5.0139	-7.2763	6.8672	2.2405	1.745	2.3942	-2.498	2.405	4.5397	0.2452	0.3533	0.2576	0.3483	0.2469	0.2002	0.3795	0.249	0.5313	0.3899	0.4536	0.2062	0.5219	0.231	0.503	0.4312	0.2021	0.3292	0.2469	6.3262	1.4211	3.4695	19	250	0.718814927308523	0	1
"251"	19	33	4	1	1.075	1	9	-1	0	2.812	3.2055	6.5801	-3.4131	5.0491	5.4652	-7.2803	-7.3226	2.9408	-4.2737	1.6506	10.8236	5.58	-0.9535	6.0914	-4.5113	1.3112	0.68	-2.3791	5.0134	-2.7715	0.333	0.333	0.333	0.333	0.333	0.333	0.333	0.333	0.333	0.333	0.333	0.333	0.333	0.333	0.333	0.333	0.333	0.333	0.333	6.327	1.4774	4.2961	19	251	1.03389597394842	0	1
"252"	19	23	4	-2	-2.15	0	9	1	0	2.592	-1.7013	-2.5361	-10.0464	-2.1308	3.4295	-2.2894	1.9868	11.6001	-8.3052	2.5408	-3.9971	-4.5366	-5.5371	-6.8184	-6.0844	3.3489	-4.972	-0.5795	0.7167	-5.4597	0.2956	0.368	0.3299	0.213	0.4555	0.263	0.3363	0.2714	0.2281	0.2594	0.2967	0.4345	0.3695	0.3415	0.2677	0.4284	0.2702	0.4789	0.4263	6.3341	1.622	4.2097	19	252	0.952429778490028	1	0
"253"	19	22	4	-4	-4.3	0	12	-1	1	3.76	-2.5494	-3.3294	-12.9194	-3.2728	-1.8705	-14.5033	-1.5055	-3.0893	-9.2811	-4.8936	-0.9628	-9.2813	-4.4839	-2.4083	-6.0398	-7.2291	-2.5262	3.3145	-5.9422	7.1205	0.4013	0.201	0.238	0.4545	0.2185	0.2838	0.2519	0.3283	0.3798	0.3302	0.4752	0.2957	0.3321	0.5013	0.2139	0.2909	0.4129	0.3366	0.3843	6.3303	1.4914	5.2609	19	253	1.3244189574018	0	1
"254"	19	35	4	4	4.3	1	9	1	1	2.821	0.5141	9.8506	12.7896	10.7186	2.715	0.7996	5.5642	5.3077	4.1792	-0.8505	5.1193	1.1592	3.9137	10.337	7.5471	0.227	-0.6723	3.2474	-6.4028	10.9659	0.333	0.333	0.333	0.333	0.333	0.333	0.333	0.333	0.333	0.333	0.333	0.333	0.333	0.333	0.333	0.333	0.333	0.333	0.333	6.327	1.5775	4.4053	19	254	1.03709143201986	1	0
"255"	19	58	4	-2	-2.15	1	8	-1	1	2.385	-1.1058	2.8056	-5.5394	-3.4574	1.9884	-5.8664	-3.9651	-8.5932	-1.3699	-3.109	-3.457	-4.4411	8.5318	-5.6106	-6.6697	6.6583	-6.0042	-4.0073	8.1255	-6.6587	0.333	0.333	0.333	0.333	0.333	0.333	0.333	0.333	0.333	0.333	0.333	0.333	0.333	0.333	0.333	0.333	0.333	0.333	0.333	6.327	1.6953	4.086	19	255	0.869199124340304	0	1
"256"	19	48	4	2	2.15	1	7	1	1	2.108	3.2979	7.2798	12.6164	-6.5854	-0.7657	0.8835	-3.1639	2.0526	9.7785	2.1791	5.8464	-3.0257	6.7316	3.8643	3.2123	-5.7467	-3.1557	1.2594	6.7022	0.7151	0.333	0.333	0.333	0.333	0.333	0.333	0.333	0.333	0.333	0.333	0.333	0.333	0.333	0.333	0.333	0.333	0.333	0.333	0.333	6.327	1.7328	3.8592	19	256	0.745739630679116	1	0
"257"	19	64	4	-4	-4.3	0	8	-1	1	2.945	-5.2498	3.6528	-9.6735	-7.9679	-1.1168	-4.6346	-5.4229	-9.3414	-4.1613	0.7614	-5.9971	-2.0362	-5.964	0.181	-14.7136	4.0641	-8.7819	2.7125	-8.281	-2.9663	0.2128	0.4288	0.4556	0.3564	0.5275	0.4818	0.3758	0.2127	0.2626	0.2262	0.2598	0.4738	0.2197	0.2632	0.2058	0.258	0.4047	0.3067	0.3883	6.3203	1.529	4.4795	19	257	1.08010881710355	0	1
"258"	19	55	4	2	2.15	0	5	1	1	1.481	3.8692	1.3093	-4.0539	8.4856	8.5934	3.7251	3.0807	-9.3186	3.954	-5.3637	6.0064	0.8852	2.9336	0.9075	10.7243	1.8643	4.7962	-2.385	-1.3778	5.0676	0.291	0.3983	0.2114	0.3448	0.3728	0.3452	0.3154	0.504	0.2372	0.4495	0.2347	0.326	0.3573	0.2843	0.2256	0.4287	0.246	0.3062	0.4409	6.3192	1.5781	3.0654	19	258	0.392717535285662	1	0
"259"	19	46	4	0	0	1	5	-1	0	1.518	-4.7808	2.3835	-3.49	-4.8318	-1.8695	-6.5186	-0.3112	-0.9494	-4.1121	-7.1296	-0.4532	1.187	3.4178	13.0728	3.0925	-4.4298	3.8862	1.0152	9.0401	1.4402	0.333	0.333	0.333	0.333	0.333	0.333	0.333	0.333	0.333	0.333	0.333	0.333	0.333	0.333	0.333	0.333	0.333	0.333	0.333	6.327	1.6612	3.1853	19	259	0.417393678973438	0	1
"260"	19	67	4	0	0	0	12	1	0	3.548	-0.955	-4.5734	-0.7984	-2.1258	0.7636	1.4531	-6.647	-3.3554	-0.2973	5.6052	2.0508	-4.0679	5.859	-7.4486	7.2676	-6.6873	9.1821	6.9459	1.1159	-5.076	0.481	0.442	0.3113	0.2154	0.3368	0.2065	0.2748	0.2221	0.5081	0.2143	0.3065	0.3576	0.5135	0.2312	0.3239	0.203	0.5176	0.3051	0.3573	6.3278	1.611	5.1652	19	260	1.26638406444733	1	0
"261"	19	60	4	0	0	1	16	-1	0	5.182	-2.6968	7.822	0.1102	0.544	3.1321	1.0058	5.8562	6.7654	-9.7353	-7.1387	-3.9438	-3.8545	0.2153	-6.3417	0.1499	-1.8124	-1.5882	6.4619	6.0395	-0.1081	0.333	0.333	0.333	0.333	0.333	0.333	0.333	0.333	0.333	0.333	0.333	0.333	0.333	0.333	0.333	0.333	0.333	0.333	0.333	6.327	1.6193	6.7993	19	261	1.64519108213992	0	1
"262"	19	21	4	4	4.3	1	11	1	1	3.653	-0.1334	6.4709	2.0619	1.3361	6.0892	4.2368	1.0722	10.3888	10.1919	8.2204	13.8877	3.0871	2.0775	-2.0613	9.6337	-5.7474	-1.4919	8.5075	1.0661	6.7196	0.333	0.333	0.333	0.333	0.333	0.333	0.333	0.333	0.333	0.333	0.333	0.333	0.333	0.333	0.333	0.333	0.333	0.333	0.333	6.327	1.6502	5.304	19	262	1.29554874781315	1	0
"263"	19	39	4	0	0	0	8	1	0	2.418	2.5516	1.9663	8.1185	1.1192	-4.0152	1.8483	-3.2018	-7.1796	-3.703	-0.9335	-5.8567	0.9209	6.8945	2.1098	-5.9519	4.8906	-2.0882	10.7796	-5.1333	-2.1386	0.5124	0.1999	0.448	0.3017	0.2608	0.2337	0.4051	0.3407	0.2807	0.2144	0.5125	0.3512	0.4708	0.2229	0.2633	0.4374	0.2274	0.4421	0.207	6.332	1.5873	4.0021	19	263	0.882940752192601	1	0
"264"	19	6	4	2	2.15	1	11	1	1	3.538	-0.417	1.3672	-6.6604	8.36	-0.7562	3.6199	-7.4767	1.989	5.8997	9.9315	-2.8198	1.7853	10.4292	0.9881	7.2449	6.0742	0.9607	0.8475	-3.1112	3.9695	0.333	0.333	0.333	0.333	0.333	0.333	0.333	0.333	0.333	0.333	0.333	0.333	0.333	0.333	0.333	0.333	0.333	0.333	0.333	6.327	1.557	5.1057	19	264	1.26356159573759	1	0
"265"	19	36	4	-4	-4.3	0	15	-1	1	4.871	-0.7816	-1.5261	-2.6322	-2.649	-13.973	-2.286	0.7477	-10.6882	-5.9697	0.1223	2.8924	-13.052	-6.4902	-7.7163	0.7243	-7.7399	-7.3114	-4.6929	-7.2551	2.9166	0.3896	0.2494	0.2134	0.446	0.274	0.2357	0.4246	0.3097	0.2545	0.3093	0.5034	0.355	0.2612	0.3683	0.2847	0.5052	0.3639	0.2058	0.3681	6.3218	1.4903	6.3722	19	265	1.58329925482441	0	1
"266"	19	66	4	-1	-1.075	0	20	1	0	6.772	0.051	2.063	-3.4994	-5.8028	-2.3694	-1.7624	4.4415	-3.093	4.2704	1.0724	-5.6738	-0.0717	-8.1074	-0.7758	9.5353	-2.9987	-3.1082	3.6769	-11.9895	4.3478	0.2245	0.46	0.2688	0.3384	0.2163	0.4868	0.4406	0.3944	0.2723	0.3096	0.2506	0.2861	0.4182	0.381	0.2791	0.4564	0.2059	0.4123	0.2346	6.3359	1.5737	8.3557	19	266	1.91279646427089	1	0
"267"	19	63	4	4	4.3	1	9	1	1	2.882	7.9308	10.7381	10.9454	7.2526	-4.9324	-2.393	6.2011	12.3433	7.6312	4.995	1.6918	9.2584	-1.5158	4.5185	2.9083	7.5295	-2.0797	2.3081	-1.8207	4.3078	0.333	0.333	0.333	0.333	0.333	0.333	0.333	0.333	0.333	0.333	0.333	0.333	0.333	0.333	0.333	0.333	0.333	0.333	0.333	6.327	1.4782	4.3663	19	267	1.05848449757733	1	0
"268"	19	2	4	-2	-2.15	1	4	-1	1	1.257	-4.3025	-9.946	-6.423	-2.0042	-0.9837	-0.5298	-1.4571	-0.9671	-7.7666	-0.7317	4.8732	-5.4744	3.1285	11.7137	-5.0962	-5.8705	2.3498	-6.3155	-4.8125	-3.8242	0.333	0.333	0.333	0.333	0.333	0.333	0.333	0.333	0.333	0.333	0.333	0.333	0.333	0.333	0.333	0.333	0.333	0.333	0.333	6.327	1.6297	2.8906	19	268	0.22872792960811	0	1
"269"	19	69	4	2	2.15	0	11	1	1	3.369	-0.9028	5.8177	0.4571	1.309	1.6429	1.2891	4.0731	0.2425	12.0325	0.4412	-2.5809	-0.5146	-1.8998	9.361	7.5216	-10.4948	0.2163	3.5249	4.742	7.7772	0.3118	0.4749	0.3109	0.237	0.484	0.3584	0.2841	0.2384	0.2914	0.213	0.3685	0.4474	0.2488	0.3035	0.3748	0.4821	0.2247	0.2589	0.4196	6.3322	1.4656	4.8369	19	269	1.21461596442442	1	0
"270"	19	11	4	0	0	0	7	1	1	1.951	3.6624	-7.1295	6.4083	4.0809	0.5975	-1.7488	4.194	-3.5344	2.0189	-0.2296	0.3409	1.1399	-7.0688	-1.6418	1.5381	-7.5147	-10.0941	6.688	5.7168	3.181	0.2873	0.4511	0.2208	0.2529	0.34	0.284	0.2493	0.384	0.2074	0.2409	0.2809	0.4079	0.5005	0.5326	0.3553	0.4621	0.3029	0.24	0.3301	6.3301	1.548	3.5015	19	270	0.668342061640974	1	0
"271"	19	45	4	-1	-1.075	1	12	-1	1	3.797	-2.4697	-9.4092	-2.2167	2.5464	-3.4956	1.4553	3.1522	-10.4343	8.2488	-0.7942	-0.4468	3.3358	-1.0758	-5.6124	-1.1841	-0.9622	-4.6694	-3.5375	-4.0801	10.3673	0.333	0.333	0.333	0.333	0.333	0.333	0.333	0.333	0.333	0.333	0.333	0.333	0.333	0.333	0.333	0.333	0.333	0.333	0.333	6.327	1.5005	5.2977	19	271	1.33421128124967	0	1
"272"	19	42	4	4	4.3	0	9	1	1	2.698	5.0414	7.0459	5.2352	2.4014	7.1503	-1.1072	5.7475	-3.1481	1.3199	4.045	6.3735	8.5949	15.8644	0.1597	10.9875	8.3014	5.0878	-2.1649	1.6705	-4.4626	0.2676	0.4129	0.2436	0.4215	0.2157	0.3765	0.2437	0.2718	0.3332	0.2268	0.3531	0.3112	0.4067	0.3356	0.4883	0.4343	0.4032	0.2425	0.3463	6.3345	1.4789	4.1818	19	272	0.992510757785564	1	0
"273"	19	41	4	2	2.15	0	6	-1	0	1.902	0.1415	-8.1898	1.8979	-1.837	2.276	2.9868	7.4303	-3.4636	-5.4377	9.1453	8.6166	-0.9352	-0.257	-0.6406	7.5365	-1.9864	6.0667	7.4896	6.6174	5.9826	0.4031	0.4524	0.2276	0.2784	0.3581	0.2893	0.2147	0.4935	0.3065	0.438	0.3642	0.2632	0.3251	0.4292	0.3004	0.211	0.2572	0.4487	0.2741	6.3345	1.5575	3.4697	19	273	0.642905964123199	0	1
"274"	19	26	4	1	1.075	0	8	1	1	2.469	5.9415	3.6492	3.3656	-7.5404	-4.8174	-0.3756	9.2213	-1.6406	-10.2202	-4.2269	2.2514	4.1491	3.6636	0.43	3.5195	5.7151	5.7854	1.3071	3.0775	-2.0664	0.3002	0.2021	0.4769	0.2695	0.3073	0.4168	0.3106	0.5136	0.2633	0.2956	0.4644	0.2886	0.3504	0.206	0.2359	0.483	0.3971	0.2927	0.2453	6.3194	1.4095	3.8858	19	274	0.903813210363042	1	0
"275"	19	37	4	-2	-2.15	0	4	-1	1	1.328	-5.7696	-3.0258	-6.3516	5.1216	3.1872	-7.5323	3.2824	-0.145	-7.1845	-3.7789	-5.986	-8.2631	-7.0761	4.6623	6.133	-5.7874	1.8071	3.1388	-3.1771	-5.6967	0.4996	0.3556	0.3075	0.2707	0.2172	0.3352	0.2748	0.2077	0.3868	0.2577	0.4514	0.2044	0.2373	0.3348	0.2511	0.2925	0.4176	0.5278	0.5012	6.331	1.4982	2.8454	19	275	0.283674051054242	0	1
"276"	19	3	4	-1	-1.075	1	6	-1	1	1.762	-3.2407	-0.7438	0.2656	-4.807	-2.4015	-6.2232	-13.69	-3.7689	1.9161	3.3834	0.1435	1.8776	4.3889	3.1347	2.737	-7.4796	6.6148	5.3284	-5.6652	-2.9281	0.333	0.333	0.333	0.333	0.333	0.333	0.333	0.333	0.333	0.333	0.333	0.333	0.333	0.333	0.333	0.333	0.333	0.333	0.333	6.327	1.5868	3.3632	19	276	0.566449527513988	0	1
"277"	19	32	4	0	0	1	8	1	1	2.537	-0.8287	7.712	1.3988	8.7785	-7.8889	-6.3576	4.6117	-8.4097	1.795	-4.4404	0.3387	2.2043	-2.3731	4.5506	-3.2361	1.1813	7.0928	1.5723	-3.567	-3.382	0.333	0.333	0.333	0.333	0.333	0.333	0.333	0.333	0.333	0.333	0.333	0.333	0.333	0.333	0.333	0.333	0.333	0.333	0.333	6.327	1.6048	4.154	19	277	0.930982280617145	1	0
"278"	19	18	4	0	0	1	8	-1	0	2.545	3.1207	1.0654	-1.5869	-5.1975	7.6904	-3.4175	-3.5631	2.9059	12.0461	-7.6064	-1.9543	2.3026	-0.5408	-5.2393	3.0205	3.6687	3.4499	1.6949	-3.4453	-7.4249	0.333	0.333	0.333	0.333	0.333	0.333	0.333	0.333	0.333	0.333	0.333	0.333	0.333	0.333	0.333	0.333	0.333	0.333	0.333	6.327	1.5657	4.1288	19	278	0.934130650002486	0	1
"279"	19	14	4	4	4.3	0	4	1	1	0.956	7.7363	7.067	0.5029	0.7841	2.4565	4.6862	2.9454	1.8931	4.9245	14.7121	11.9513	-5.2194	8.3358	4.5262	7.3893	8.7791	2.7242	-6.0917	2.4825	4.7534	0.2488	0.2145	0.2611	0.4566	0.3447	0.2264	0.5074	0.2511	0.4115	0.3212	0.3599	0.2551	0.4977	0.2292	0.2016	0.4017	0.4459	0.316	0.3744	6.3247	1.6151	2.5729	19	279	-0.0449973659307358	1	0
"280"	19	1	4	-4	-4.3	1	9	-1	1	2.74	-5.9297	-12.0375	-1.5968	8.0171	-10.1638	-10.3097	-6.0795	3.7976	-5.0425	-3.9567	0.4995	2.1357	-6.0615	-2.7681	-7.9227	-3.6034	-5.233	-7.4105	-4.5824	-8.9307	0.333	0.333	0.333	0.333	0.333	0.333	0.333	0.333	0.333	0.333	0.333	0.333	0.333	0.333	0.333	0.333	0.333	0.333	0.333	6.327	1.4111	4.157	19	280	1.00795792039998	0	1
