"subNo"	"index"	"block"	"level"	"mean"	"periodicity"	"nEvents"	"answer"	"isCorrect"	"rt"	"s1"	"s2"	"s3"	"s4"	"s5"	"s6"	"s7"	"s8"	"s9"	"s10"	"s11"	"s12"	"s13"	"s14"	"s15"	"s16"	"s17"	"s18"	"s19"	"s20"	"t1"	"t2"	"t3"	"t4"	"t5"	"t6"	"t7"	"t8"	"t9"	"t10"	"t11"	"t12"	"t13"	"t14"	"t15"	"t16"	"t17"	"t18"	"t19"	"seqDuration"	"startInterval"	"trialDuration"	"pID"	"Trial"	"rtLog"	"right"	"left"
"1"	6	63	1	4	7.26	1	7	1	1	2.317	6.3482	6.7191	-1.1465	8.5449	1.5299	7.9281	9.823	9.6028	11.8466	14.6919	1.4347	12.6195	3.1087	7.8196	7.6771	0.6065	7.056	0.7238	14.8923	13.3662	0.333	0.333	0.333	0.333	0.333	0.333	0.333	0.333	0.333	0.333	0.333	0.333	0.333	0.333	0.333	0.333	0.333	0.333	0.333	6.327	1.5539	3.8679	6	1	0.840273245450239	1	0
"2"	6	28	1	4	7.26	0	7	1	1	1.962	10.9684	-0.5701	14.1366	9.3248	-2.9975	8.7786	9.6531	-3.1794	6.779	10.5262	4.8559	12.8154	4.3986	11.443	6.8509	4.832	8.2655	6.2171	13.1381	8.3541	0.3742	0.3303	0.2946	0.2626	0.3398	0.2794	0.495	0.4085	0.3162	0.3846	0.2929	0.2347	0.203	0.3414	0.208	0.524	0.3207	0.2441	0.4684	6.3225	1.6908	3.6456	6	2	0.673964361143171	1	0
"3"	6	41	1	2	3.63	0	10	1	1	3.357	-0.077	-0.0701	3.802	8.9782	12.352	9.0059	4.2408	1.0984	1.7946	-7.3751	0.6477	4.5531	0.2739	6.6445	3.9051	2.032	5.3673	0.1934	14.5667	0.4342	0.4184	0.349	0.4822	0.3594	0.5261	0.2603	0.2948	0.3828	0.2754	0.223	0.2977	0.3294	0.2215	0.365	0.2408	0.3406	0.473	0.2861	0.2046	6.3304	1.5612	4.9411	6	3	1.2110477179979	1	0
"4"	6	11	1	0	0	0	9	-1	0	2.433	-2.2596	-0.9894	7.3071	-1.0788	1.0482	-9.7318	0.1552	-2.8442	-0.2388	7.803	3.9846	0.9671	2.7521	9.3562	-6.9954	-2.3864	-1.9729	2.4841	-8.0258	0.6364	0.2109	0.331	0.2357	0.3319	0.4453	0.2418	0.3548	0.2554	0.3303	0.4908	0.4202	0.3194	0.4923	0.343	0.2427	0.3785	0.315	0.3535	0.2304	6.3227	1.4169	3.8671	6	4	0.889125063801385	0	1
"5"	6	3	1	-1	-1.815	1	8	-1	1	2.406	0.6891	-8.7507	-4.8817	4.6303	-10.5334	-4.6305	-1.7761	-0.3326	2.5751	-6.0402	3.7474	-5.5214	-3.3556	-7.5295	-7.6466	6.1726	3.1896	1.4382	-0.099	1.9566	0.333	0.333	0.333	0.333	0.333	0.333	0.333	0.333	0.333	0.333	0.333	0.333	0.333	0.333	0.333	0.333	0.333	0.333	0.333	6.327	1.4773	3.8902	6	5	0.877965617552487	0	1
"6"	6	7	1	4	7.26	1	9	1	1	2.883	2.4192	9.2291	1.4955	4.0316	-3.3252	14.894	6.4731	8.5459	7.8589	8.6746	4.1263	15.0062	14.7077	6.9111	0.1963	11.5099	11.5046	11.1996	4.9093	6.1394	0.333	0.333	0.333	0.333	0.333	0.333	0.333	0.333	0.333	0.333	0.333	0.333	0.333	0.333	0.333	0.333	0.333	0.333	0.333	6.327	1.4845	4.3832	6	6	1.05883141865627	1	0
"7"	6	42	1	4	7.26	0	6	1	1	1.683	7.6928	15.481	6.8288	9.8061	8.3404	7.4726	0.0347	12.0868	-0.5505	12.7342	10.8373	12.2224	1.5368	6.6159	8.4534	6.6939	9.4957	-5.0103	8.6759	5.7935	0.2086	0.305	0.4644	0.2717	0.3768	0.4204	0.2056	0.3573	0.5139	0.2886	0.4321	0.2161	0.3017	0.4632	0.2026	0.2449	0.2856	0.5271	0.2374	6.323	1.614	3.3009	6	7	0.520577915208669	1	0
"8"	6	39	1	0	0	0	14	-1	1	4.73	-3.5773	-2.1457	-12.4287	-2.4153	2.1402	-1.4711	-0.7817	-1.8933	2.8258	7.3845	-2.3432	-0.2552	-1.8495	-2.2673	7.7475	7.0297	-2.9883	9.5993	-3.1944	0.3294	0.3639	0.2287	0.3949	0.336	0.4908	0.4613	0.2536	0.218	0.2892	0.38	0.2568	0.4603	0.3748	0.2947	0.201	0.2477	0.3825	0.2919	0.4095	6.3354	1.6267	6.3642	6	8	1.55392520250384	0	1
"9"	6	50	1	-4	-7.26	0	5	-1	1	1.735	-4.4569	-16.7719	1.8975	-7.5407	-6.8858	-1.9345	-5.8293	-3.229	-13.3611	-9.4407	-13.1539	-4.1851	-9.25	-6.7179	-6.0714	-15.6851	-0.5179	-4.1348	-4.5371	-12.2687	0.4318	0.2155	0.2718	0.3685	0.4561	0.2023	0.3754	0.2032	0.3143	0.4119	0.2615	0.2289	0.4644	0.3412	0.4404	0.3241	0.271	0.4802	0.2692	6.3314	1.5613	3.3022	6	9	0.551007413398823	0	1
"10"	6	25	1	0	0	0	20	1	1	7.524	-1.5719	-1.593	-2.1109	-6.128	-4.8548	-3.0839	1.6574	3.0976	6.9016	-7.8701	7.5053	-0.077	3.5111	-3.5909	3.0945	7.6653	7.5895	-1.497	-3.8821	-5.72	0.21	0.375	0.486	0.2533	0.4313	0.3848	0.2674	0.3282	0.2461	0.4305	0.2552	0.5004	0.3486	0.2339	0.2073	0.4635	0.309	0.3572	0.2326	6.3204	1.4734	9.0079	6	10	2.01809791143878	1	0
"11"	6	62	1	2	3.63	1	9	1	1	2.784	2.8002	-2.5866	10.9462	-2.4786	5.3287	6.1596	0.5166	3.6793	0.3919	-5.4482	11.5011	7.4393	7.3826	9.7725	1.5844	1.8779	7.5667	-1.0332	-1.9565	7.8692	0.333	0.333	0.333	0.333	0.333	0.333	0.333	0.333	0.333	0.333	0.333	0.333	0.333	0.333	0.333	0.333	0.333	0.333	0.333	6.327	1.5888	4.3684	6	11	1.02388874247217	1	0
"12"	6	58	1	-2	-3.63	1	10	-1	1	3.003	-0.7264	-0.0142	2.4158	-1.0589	4.8773	-8.1975	3.3923	-6.189	-9.05	-8.5925	-12.6737	-0.8867	-4.4654	-5.5156	-6.0757	-0.428	-10.443	2.3844	-6.1096	-3.9617	0.333	0.333	0.333	0.333	0.333	0.333	0.333	0.333	0.333	0.333	0.333	0.333	0.333	0.333	0.333	0.333	0.333	0.333	0.333	6.327	1.6468	4.6541	6	12	1.09961178900119	0	1
"13"	6	64	1	-4	-7.26	0	9	-1	1	2.867	-5.5786	-8.5889	-6.3142	-3.0312	-7.0725	2.5774	-5.0343	-14.0632	-17.3468	-8.1836	-8.2599	-8.911	-0.9677	-7.9918	-8.0363	-6.9447	-8.5109	-12.0549	2.5542	-12.003	0.4132	0.3576	0.3195	0.2498	0.3165	0.2581	0.3382	0.4585	0.3762	0.3492	0.46	0.2283	0.2808	0.3079	0.2082	0.2818	0.4385	0.3729	0.3189	6.3342	1.7001	4.585	6	13	1.05326618690123	0	1
"14"	6	33	1	1	1.815	1	11	1	1	3.549	-0.5523	-2.1617	-1.4573	10.8697	-2.6067	2.9192	1.4897	2.5887	4.9808	3.3051	1.3846	10.0678	4.8717	-3.0348	1.8021	12.2072	-3.4815	1.9616	-7.8747	-1.3219	0.333	0.333	0.333	0.333	0.333	0.333	0.333	0.333	0.333	0.333	0.333	0.333	0.333	0.333	0.333	0.333	0.333	0.333	0.333	6.327	1.4557	5.0166	6	14	1.26666587366436	1	0
"15"	6	46	1	0	0	1	16	1	1	5.124	1.7127	-2.0563	-5.9675	-4.9547	-5.4722	-6.4228	4.163	0.5869	1.4629	5.4474	-0.7719	3.734	2.126	5.6247	7.7099	4.7979	3.7876	-9.4619	-7.4796	0.7224	0.333	0.333	0.333	0.333	0.333	0.333	0.333	0.333	0.333	0.333	0.333	0.333	0.333	0.333	0.333	0.333	0.333	0.333	0.333	6.327	1.5427	6.6748	6	15	1.63393538403449	1	0
"16"	6	48	1	2	3.63	1	14	1	1	4.534	2.4768	4.8395	-4.7211	10.9519	2.3714	-0.6916	1.3993	10.0756	3.0507	9.7433	0.1889	-2.0002	7.6768	-2.1059	13.3476	10.7	1.9613	-0.6119	2.6704	2.4061	0.333	0.333	0.333	0.333	0.333	0.333	0.333	0.333	0.333	0.333	0.333	0.333	0.333	0.333	0.333	0.333	0.333	0.333	0.333	6.327	1.5753	6.1182	6	16	1.51160455208534	1	0
"17"	6	29	1	-4	-7.26	1	7	-1	1	2.248	-8.9734	-14.9968	-7.1883	-9.7556	-7.2899	-8.9176	-16.1473	-9.5982	-9.381	-7.5542	-4.3628	-1.9103	2.6755	-1.4544	-9.6024	4.157	-7.3575	-6.1901	-10.4454	-9.5043	0.333	0.333	0.333	0.333	0.333	0.333	0.333	0.333	0.333	0.333	0.333	0.333	0.333	0.333	0.333	0.333	0.333	0.333	0.333	6.327	1.6632	3.915	6	17	0.810040932031445	0	1
"18"	6	54	1	1	1.815	0	14	1	1	4.728	-2.722	-0.5538	-2.3856	6.7814	4.0419	4.7583	-2.1035	2.6143	3.719	-4.8602	0.1439	-1.2576	5.5552	7.4285	-2.6068	1.4095	-9.5323	7.7707	8.5579	9.1969	0.5328	0.3375	0.2358	0.2686	0.2161	0.4858	0.2655	0.4193	0.3596	0.2398	0.2988	0.3738	0.2426	0.4917	0.2621	0.2368	0.2117	0.4841	0.3609	6.3232	1.6035	6.3457	6	18	1.5535022801038	1	0
"19"	6	47	1	1	1.815	1	9	-1	0	2.952	3.1811	5.0532	1.2839	-3.9167	-4.388	-8.2671	3.526	-5.1953	4.0409	-0.0033	5.626	4.9955	9.1275	-0.2846	7.6349	-1.5346	-3.8152	2.5953	10.3337	4.988	0.333	0.333	0.333	0.333	0.333	0.333	0.333	0.333	0.333	0.333	0.333	0.333	0.333	0.333	0.333	0.333	0.333	0.333	0.333	6.327	1.559	4.5193	6	19	1.08248290673823	0	1
"20"	6	15	1	-4	-7.26	1	5	-1	1	1.564	-8.8314	-9.9088	-4.3014	-6.4302	0.8075	-1.0784	-14.2675	-8.1992	-16.4194	-6.0563	-11.8492	-3.2757	-12.949	-9.326	-4.1324	-11.4436	-3.0835	-10.1913	2.7986	-5.7596	0.333	0.333	0.333	0.333	0.333	0.333	0.333	0.333	0.333	0.333	0.333	0.333	0.333	0.333	0.333	0.333	0.333	0.333	0.333	6.327	1.4092	2.9816	6	20	0.447246642123119	0	1
"21"	6	61	1	1	1.815	1	19	1	1	6.202	-0.7151	1.5485	7.1884	-1.9152	-3.0992	-3.1857	-9.9669	-2.7067	7.8651	10.1581	3.2292	-2.8257	5.3508	-0.8477	1.8026	8.6406	1.2731	3.2302	7.9739	1.6705	0.333	0.333	0.333	0.333	0.333	0.333	0.333	0.333	0.333	0.333	0.333	0.333	0.333	0.333	0.333	0.333	0.333	0.333	0.333	6.327	1.4539	7.6529	6	21	1.82487182067826	1	0
"22"	6	43	1	-4	-7.26	1	5	-1	1	1.429	-2.8158	-8.3414	-4.9361	-9.5917	-6.1326	2.0694	-9.3415	-2.3858	-6.4324	0.4113	-8.2355	-12.4314	-2.646	-9.7211	-14.3197	-14.3761	-6.425	-5.5052	-17.0914	-7.4668	0.333	0.333	0.333	0.333	0.333	0.333	0.333	0.333	0.333	0.333	0.333	0.333	0.333	0.333	0.333	0.333	0.333	0.333	0.333	6.327	1.4893	2.9128	6	22	0.35697489894773	0	1
"23"	6	65	1	-2	-3.63	0	5	-1	1	1.967	-5.0107	-5.7553	-9.9455	-1.6375	-8.4124	-6.6974	3.4279	5.3172	-3.7456	-3.31	-2.9278	-7.2911	-3.6506	-9.7053	3.2842	-5.544	2.7294	0.5741	-1.6625	-12.8763	0.4521	0.3074	0.2657	0.5203	0.4224	0.2605	0.2142	0.4917	0.2742	0.3647	0.3147	0.4288	0.2477	0.2213	0.33	0.2325	0.3716	0.2353	0.3651	6.3204	1.69	3.6676	6	23	0.676509539406922	0	1
"24"	6	60	1	0	0	1	8	1	0	2.545	3.2745	-5.1175	4.7371	9.3591	-6.866	4.6043	8.1198	0.1871	0.4084	-4.6983	7.6476	-5.0252	-1.2046	-0.5498	-4.8803	1.792	-2.5341	-5.0465	1.626	-5.5532	0.333	0.333	0.333	0.333	0.333	0.333	0.333	0.333	0.333	0.333	0.333	0.333	0.333	0.333	0.333	0.333	0.333	0.333	0.333	6.327	1.6416	4.1954	6	24	0.934130650002486	1	0
"25"	6	22	1	-4	-7.26	0	4	-1	1	1.055	-6.2059	-15.1055	-10.5366	0.1117	-5.7519	-3.4851	-9.7685	-8.0248	-8.0583	-5.1441	-3.0556	-9.3619	3.0737	-1.9967	-10.4762	-6.2821	-13.831	-4.8286	-8.0842	-16.7971	0.4178	0.2014	0.3221	0.2587	0.2107	0.4314	0.3593	0.441	0.2072	0.2786	0.4188	0.2718	0.4559	0.2734	0.227	0.3681	0.4771	0.2697	0.4405	6.3307	1.5972	2.6725	6	25	0.0535407669280298	0	1
"26"	6	21	1	4	7.26	1	6	1	1	1.897	10.4054	5.283	9.3917	9.7357	-0.5489	-0.022	9.4546	5.4736	6.8144	3.5162	7.5891	6.0286	20.1579	9.6185	10.0545	12.3791	12.6778	0.6567	5.7016	0.7822	0.333	0.333	0.333	0.333	0.333	0.333	0.333	0.333	0.333	0.333	0.333	0.333	0.333	0.333	0.333	0.333	0.333	0.333	0.333	6.327	1.4288	3.3306	6	26	0.640273690952877	1	0
"27"	6	5	1	1	1.815	1	7	1	1	2.253	-0.2413	9.6508	-2.8716	2.6046	5.0528	7.3148	5.0358	7.8166	-0.8218	-3.5518	-7.4148	3.6587	3.5352	4.5867	-0.8021	-1.9895	9.9696	-5.2721	1.7642	-3.485	0.333	0.333	0.333	0.333	0.333	0.333	0.333	0.333	0.333	0.333	0.333	0.333	0.333	0.333	0.333	0.333	0.333	0.333	0.333	6.327	1.4489	3.7207	6	27	0.812262661450107	1	0
"28"	6	10	1	-1	-1.815	0	20	-1	1	6.721	2.9622	0.7129	-12.4937	-2.0407	0.5341	-4.2541	5.1057	-3.6842	-4.8446	-2.1296	-3.0202	-5.5703	-5.7121	-0.1028	5.4613	-5.5151	-1.8961	8.7167	-9.0413	2.1076	0.3167	0.3808	0.324	0.4182	0.3172	0.5007	0.2812	0.2235	0.2537	0.5203	0.3169	0.2524	0.3022	0.2692	0.2151	0.436	0.3207	0.2023	0.4747	6.3259	1.7007	8.439	6	28	1.90523695298783	0	1
"29"	6	49	1	4	7.26	1	7	1	1	2.013	2.5644	4.5986	1.4341	14.6408	-0.1762	6.4521	-0.5661	7.6243	3.5109	10.2035	10.4892	7.4411	7.6809	3.0307	8.7153	9.7029	18.075	8.3573	13.9621	7.1699	0.333	0.333	0.333	0.333	0.333	0.333	0.333	0.333	0.333	0.333	0.333	0.333	0.333	0.333	0.333	0.333	0.333	0.333	0.333	6.327	1.6742	3.697	6	29	0.699626146657654	1	0
"30"	6	32	1	0	0	1	8	1	1	2.44	-0.343	-0.1719	3.6167	5.3188	-3.9141	1.8087	8.1707	-2.6885	-6.3948	4.6934	2.1162	-5.5326	-6.1742	8.321	1.3922	6.0045	-2.7382	-7.8347	-3.606	-3.5051	0.333	0.333	0.333	0.333	0.333	0.333	0.333	0.333	0.333	0.333	0.333	0.333	0.333	0.333	0.333	0.333	0.333	0.333	0.333	6.327	1.5049	3.9572	6	30	0.89199803930511	1	0
"31"	6	52	1	-1	-1.815	0	6	-1	1	1.926	2.6547	-10.8896	-2.5818	-0.1062	-8.4395	-3.5279	-3.8548	-2.9476	7.338	2.3017	-6.9837	-0.5394	-0.5246	-12.8719	0.7582	1.0867	3.1509	-3.2882	-1.1697	3.229	0.3106	0.4889	0.2692	0.405	0.31	0.2088	0.3349	0.4096	0.2365	0.3523	0.5147	0.2435	0.4932	0.2123	0.2881	0.2031	0.5244	0.3008	0.2175	6.3235	1.4764	3.4104	6	31	0.655445313375934	0	1
"32"	6	55	1	2	3.63	0	17	1	1	5.29	4.1224	-1.7561	7.7007	7.2818	0.427	6.1349	0.5578	-1.7422	3.8488	0.6351	12.6055	-2.4291	8.494	3.1591	-0.293	13.5199	1.2055	10.5719	-0.5826	-2.1546	0.3203	0.29	0.3472	0.238	0.4997	0.2507	0.306	0.503	0.3425	0.3027	0.3358	0.267	0.3325	0.2499	0.4639	0.2313	0.3298	0.4601	0.2657	6.3359	1.6689	6.9579	6	32	1.66581824587021	1	0
"33"	6	4	1	0	0	1	18	-1	1	5.848	-1.5398	6.5832	-1.1562	-2.4838	1.4581	-3.5128	1.8954	2.2035	6.9827	1.2596	-2.6434	-6.469	-0.3568	5.5051	6.7252	-5.9497	-11.2921	-1.6543	-2.009	8.271	0.333	0.333	0.333	0.333	0.333	0.333	0.333	0.333	0.333	0.333	0.333	0.333	0.333	0.333	0.333	0.333	0.333	0.333	0.333	6.327	1.6647	7.5153	6	33	1.76609972244748	0	1
"34"	6	20	1	2	3.63	1	8	1	1	2.543	2.5515	9.0849	-0.3088	-4.3197	4.6473	12.8259	-2.5333	9.4216	10.3731	2.7995	4.0044	6.6925	-0.9908	1.9758	2.9824	-1.1977	1.5466	4.1839	-2.8388	10.3893	0.333	0.333	0.333	0.333	0.333	0.333	0.333	0.333	0.333	0.333	0.333	0.333	0.333	0.333	0.333	0.333	0.333	0.333	0.333	6.327	1.6118	4.1772	6	34	0.933344486439983	1	0
"35"	6	13	1	2	3.63	0	6	1	1	1.9	3.9081	8.4214	-7.7392	0.457	13.868	7.0727	0.9545	1.258	3.0964	-2.6882	0.055	8.3682	8.3239	-0.325	1.5365	7.6036	5.2358	6.0155	7.9865	-0.2187	0.2735	0.4791	0.2539	0.299	0.3662	0.3358	0.419	0.2177	0.2959	0.2054	0.4762	0.4456	0.2571	0.3304	0.4022	0.3096	0.2636	0.4738	0.2283	6.3326	1.594	3.5004	6	35	0.641853886172395	1	0
"36"	6	19	1	1	1.815	1	13	-1	0	4.132	2.5149	-0.6527	-8.0216	7.31	2.3641	8.8655	3.3716	1.7817	3.6277	3.0131	-4.6133	1.2677	2.852	7.6466	-3.9007	10.2983	2.833	2.8963	-6.0343	-2.7417	0.333	0.333	0.333	0.333	0.333	0.333	0.333	0.333	0.333	0.333	0.333	0.333	0.333	0.333	0.333	0.333	0.333	0.333	0.333	6.327	1.4507	5.5993	6	36	1.41876155125739	0	1
"37"	6	38	1	-1	-1.815	0	10	-1	1	3.464	-2.9335	2.4196	1.442	-1.5578	2.9407	-4.4334	0.9969	3.1188	-2.7512	-5.9882	3.2188	0.1627	-2.7201	-3.1832	-0.9332	-16.7508	0.9563	3.7714	-8.6166	-6.8555	0.2904	0.4586	0.2681	0.3143	0.2263	0.5039	0.4311	0.2731	0.4465	0.268	0.2226	0.4802	0.3964	0.2884	0.3699	0.3022	0.259	0.3177	0.2122	6.3287	1.6095	5.0817	6	37	1.24242399070019	0	1
"38"	6	30	1	-2	-3.63	1	9	-1	1	2.748	-1.6727	-7.1582	2.1302	-2.7374	-4.2533	-5.6288	6.2114	-13.5425	1.0336	3.7701	-0.8115	-9.2268	-7.9812	-1.3857	-7.6004	-4.5665	-10.3064	-0.3089	-5.9855	-1.0237	0.333	0.333	0.333	0.333	0.333	0.333	0.333	0.333	0.333	0.333	0.333	0.333	0.333	0.333	0.333	0.333	0.333	0.333	0.333	6.327	1.4114	4.1652	6	38	1.0108733743601	0	1
"39"	6	36	1	-4	-7.26	0	7	-1	1	2.453	-8.5116	-17.1203	-12.6939	-4.7747	-6.0843	-7.673	-1.059	3.0141	-9.2749	-14.9426	-3.7534	-1.7825	-7.7876	-2.1868	-6.935	-5.9327	-5.3034	-13.0218	-10.347	-9.6197	0.3437	0.4015	0.2904	0.3887	0.2949	0.4476	0.3871	0.4513	0.2265	0.3602	0.2394	0.2061	0.3304	0.4499	0.2359	0.4257	0.21	0.2996	0.3394	6.3284	1.6281	4.0869	6	39	0.897311765276352	0	1
"40"	6	37	1	-2	-3.63	0	14	-1	1	4.668	-8.2722	-1.1908	5.9944	-3.2434	4.1739	2.3066	-6.9873	-0.6712	-9.3588	-8.5363	-10.5464	-2.7918	-6.0316	-4.9475	-2.5011	5.9404	-6.4828	-5.3917	-4.5385	-9.4732	0.3215	0.296	0.4011	0.3488	0.4744	0.297	0.4479	0.4208	0.2026	0.357	0.2317	0.3631	0.2488	0.3104	0.2166	0.2804	0.3929	0.4275	0.279	6.3173	1.6453	6.3192	6	40	1.54073071442431	0	1
"41"	6	45	1	-1	-1.815	1	7	1	0	2.144	-2.5166	4.021	2.3727	3.6868	2.1058	2.5252	3.6346	-9.073	-7.8081	1.6305	-2.5342	-12.4189	-4.2856	-8.0292	-0.157	-1.1133	2.9984	-1.5776	-7.187	-1.8465	0.333	0.333	0.333	0.333	0.333	0.333	0.333	0.333	0.333	0.333	0.333	0.333	0.333	0.333	0.333	0.333	0.333	0.333	0.333	6.327	1.7136	3.8617	6	41	0.762673243208556	1	0
"42"	6	24	1	-1	-1.815	0	14	-1	1	4.819	-0.8476	-14.6646	-0.3572	-0.7668	2.328	2.0707	3.1866	-4.4748	-1.4541	-2.2568	2.6104	0.9286	-9.2087	-1.496	-5.0819	-0.8638	-4.1951	-0.5438	-9.2315	7.1532	0.3659	0.2597	0.3821	0.2632	0.4088	0.3081	0.3381	0.4362	0.5044	0.3534	0.3256	0.2383	0.3076	0.4157	0.3694	0.3102	0.2007	0.2303	0.3069	6.3247	1.4932	6.32	6	42	1.5725664376582	0	1
"43"	6	59	1	-1	-1.815	1	7	-1	1	2.239	-5.3551	-2.7748	-9.2793	-10.6836	-0.0447	-3.4924	5.7405	-1.5086	-1.7705	3.6267	0.0364	-4.845	-1.5436	1.5473	7.9907	2.3826	-2.4666	-1.5102	-11.2256	-2.2081	0.333	0.333	0.333	0.333	0.333	0.333	0.333	0.333	0.333	0.333	0.333	0.333	0.333	0.333	0.333	0.333	0.333	0.333	0.333	6.327	1.6718	3.9232	6	43	0.806029337616618	0	1
"44"	6	40	1	1	1.815	0	12	1	1	4.136	-0.4379	-4.6682	8.458	3.1862	4.5086	10.4216	0.7184	2.4343	-0.5872	1.9669	2.1216	9.8001	0.6284	6.6124	-8.4956	7.6373	-4.0387	-1.504	-0.351	-3.8615	0.2639	0.2233	0.438	0.4012	0.4518	0.2392	0.4472	0.3233	0.3885	0.2242	0.348	0.4568	0.2629	0.4791	0.223	0.3919	0.2509	0.2872	0.2318	6.3322	1.4314	5.5865	6	44	1.41972913720613	1	0
"45"	6	51	1	-2	-3.63	0	5	-1	1	1.333	-1.672	-9.9303	-9.4503	-5.9914	-2.1049	-10.0749	7.8927	0.6885	-1.0301	-2.6959	-8.7316	-1.1948	3.1528	-8.9561	-0.5378	-1.4674	-1.6013	-2.4134	-6.2711	-10.7154	0.2347	0.2963	0.2406	0.5148	0.4495	0.2652	0.3041	0.2499	0.3868	0.4217	0.3287	0.3847	0.2093	0.2939	0.5092	0.3977	0.229	0.3691	0.2393	6.3245	1.7205	3.0668	6	45	0.287432041196572	0	1
"46"	6	53	1	0	0	0	17	-1	1	5.59	-1.1853	4.2503	-1.4828	-8.3498	-2.7831	8.2891	6.7804	-0.3447	-0.5563	0.7285	-8.7243	0.812	-1.0995	-6.3317	3.7491	-6.7413	6.3175	0.8807	6.4013	0.3566	0.2656	0.3436	0.3071	0.5231	0.2353	0.4144	0.2749	0.5278	0.387	0.2891	0.2582	0.2155	0.2816	0.4902	0.2463	0.2145	0.3991	0.3144	0.3489	6.3365	1.5328	7.1405	6	46	1.72097928716701	0	1
"47"	6	34	1	2	3.63	1	10	1	1	3.249	3.7777	-1.0113	3.9666	3.9963	7.6959	-1.4244	4.7831	-1.5617	5.8332	10.12	-9.2621	3.6165	5.8508	7.6762	10.3018	-1.0002	5.691	-1.0303	3.585	11.5366	0.333	0.333	0.333	0.333	0.333	0.333	0.333	0.333	0.333	0.333	0.333	0.333	0.333	0.333	0.333	0.333	0.333	0.333	0.333	6.327	1.7223	4.9831	6	47	1.17834725668696	1	0
"48"	6	16	1	-2	-3.63	1	11	-1	1	3.606	-6.5009	8.1516	-11.0251	-0.6977	-11.2824	1.7742	-8.371	0.3241	-2.1507	-2.5633	-1.0757	-8.1588	-2.1175	-10.163	-0.4688	-2.9958	-0.0813	-7.1828	-8.0775	1.1098	0.333	0.333	0.333	0.333	0.333	0.333	0.333	0.333	0.333	0.333	0.333	0.333	0.333	0.333	0.333	0.333	0.333	0.333	0.333	6.327	1.4485	5.0569	6	48	1.28259912478113	0	1
"49"	6	44	1	-2	-3.63	1	10	-1	1	3.109	-0.5818	-2.6925	-7.1378	2.6217	1.1465	5.2029	2.1275	-1.248	-11.2477	0.0297	-1.2004	-8.9299	-4.2942	-10.4461	-9.2171	-0.0746	-9.377	-6.4393	-2.7394	-7.773	0.333	0.333	0.333	0.333	0.333	0.333	0.333	0.333	0.333	0.333	0.333	0.333	0.333	0.333	0.333	0.333	0.333	0.333	0.333	6.327	1.6926	4.8099	6	49	1.13430113107662	0	1
"50"	6	18	1	0	0	1	13	-1	1	4.274	4.3939	-0.9686	-3.629	3.962	1.3668	2.5721	6.3236	1.1391	-0.4774	4.4377	-5.4982	-1.0662	7.1211	-6.5783	1.6812	5.573	-5.2072	-11.5695	-5.6654	2.2423	0.333	0.333	0.333	0.333	0.333	0.333	0.333	0.333	0.333	0.333	0.333	0.333	0.333	0.333	0.333	0.333	0.333	0.333	0.333	6.327	1.6861	5.9577	6	50	1.45255015689696	0	1
"51"	6	67	1	0	0	0	10	1	1	3.193	-1.8918	9.2848	-1.9803	4.9939	2.5877	-2.7087	-5.5486	8.4806	6.0748	-5.0382	1.9872	5.8606	-5.5456	-0.9935	0.6833	-1.4472	-6.4571	-5.8547	-4.7929	3.9444	0.4166	0.2011	0.4712	0.3669	0.233	0.4259	0.3341	0.4642	0.2536	0.2073	0.4018	0.2269	0.2719	0.2409	0.3253	0.418	0.3721	0.4658	0.2287	6.3253	1.7312	4.9276	6	51	1.16096091373265	1	0
"52"	6	70	1	4	7.26	0	5	1	1	1.629	4.8712	13.426	14.1524	8.5724	4.3869	9.9688	-1.3074	0.1196	3.9565	15.9505	7.0073	6.6019	7.2492	4.9759	0.6763	15.7178	12.0224	5.2739	3.9278	7.0708	0.3627	0.3227	0.251	0.3784	0.4948	0.3292	0.2817	0.2353	0.2634	0.4054	0.229	0.4067	0.4369	0.2774	0.3305	0.2205	0.359	0.4982	0.2376	6.3205	1.6422	3.2795	6	52	0.487966329619908	1	0
"53"	6	66	1	-1	-1.815	0	14	-1	1	4.735	1.2022	-0.57	11.0513	6.4803	-1.7517	0.1205	-7.5147	-1.4138	-10.0477	-0.2494	-1.5762	-6.0625	-0.2019	-6.9204	1.0962	-3.0195	-8.2592	0.4031	-1.1469	-6.7433	0.2461	0.4917	0.367	0.2092	0.3377	0.3811	0.4787	0.2522	0.4937	0.3206	0.2404	0.3431	0.2052	0.401	0.376	0.4164	0.2992	0.2621	0.2153	6.3367	1.5216	6.2688	6	53	1.55498172663804	0	1
"54"	6	14	1	4	7.26	0	5	1	1	1.375	4.703	17.5651	8.0265	18.7599	7.9908	11.6343	3.6208	6.6639	-1.6055	6.6985	4.3628	7.5981	12.1868	6.8499	5.4815	9.6821	3.2665	7.9107	-0.6588	5.0105	0.2562	0.4285	0.2019	0.2869	0.3798	0.4673	0.4235	0.2321	0.3375	0.2687	0.3558	0.3297	0.3748	0.3017	0.2278	0.2608	0.3116	0.4994	0.3839	6.3281	1.5712	2.9589	6	54	0.318453731118535	1	0
"55"	6	9	1	-2	-3.63	0	10	-1	1	3.192	-2.966	8.4444	-5.7257	-4.7331	-8.3713	-7.9245	-1.5585	-2.4649	-5.4685	-8.1564	-7.7425	-9.9409	-1.7018	1.6481	7.4392	-6.9925	-7.9446	-3.3444	-3.9383	0.3212	0.3956	0.2321	0.2671	0.2985	0.5	0.3784	0.2734	0.3241	0.2592	0.3341	0.3782	0.2016	0.4648	0.3279	0.2794	0.37	0.4409	0.2085	0.4013	6.335	1.4591	4.6597	6	55	1.16064767958756	0	1
"56"	6	69	1	2	3.63	0	7	1	1	2.267	6.4407	0.356	0.0924	4.8716	9.0668	12.4379	6.3676	4.9501	8.6813	-2.7485	0.6282	6.1069	0.0277	-10.1949	3.6031	6.9972	4.4542	8.3912	0.8629	-0.1097	0.4534	0.364	0.2584	0.4401	0.3234	0.2402	0.5084	0.337	0.43	0.3181	0.4061	0.2056	0.2929	0.3635	0.228	0.4576	0.2267	0.2725	0.2007	6.3266	1.405	3.6841	6	56	0.818457371525392	1	0
"57"	6	56	1	4	7.26	0	3	1	1	1.086	9.0223	15.2377	9.2922	1.7188	7.1953	3.8898	4.1162	-0.2079	10.434	11.6919	3.288	15.8805	5.7402	4.6583	6.1708	12.6079	10.5529	7.9678	9.0321	-3.5033	0.4056	0.4549	0.2588	0.3184	0.2006	0.2354	0.3309	0.4541	0.4159	0.2214	0.2841	0.2332	0.336	0.458	0.4262	0.4937	0.2369	0.3508	0.2211	6.3359	1.6009	2.7039	6	57	0.0825012215117438	1	0
"58"	6	35	1	4	7.26	1	5	1	1	1.409	11.0654	11.2163	2.8314	9.5135	-2.3183	11.6879	13.51	10.7028	-3.3191	9.6674	-2.2279	5.5197	9.5218	8.1851	6.7317	8.4947	14.1788	8.1668	5.1358	7.1539	0.333	0.333	0.333	0.333	0.333	0.333	0.333	0.333	0.333	0.333	0.333	0.333	0.333	0.333	0.333	0.333	0.333	0.333	0.333	6.327	1.5245	2.9431	6	58	0.342880232916543	1	0
"59"	6	26	1	1	1.815	0	9	1	1	2.889	-0.5874	6.7947	12.3111	-2.3652	-7.6757	-1.4274	2.7287	9.3862	0.1279	5.8815	4.0425	-2.4694	-2.8217	4.9049	-4.2817	0.0318	3.6876	-0.2773	0.7408	7.9123	0.3526	0.2032	0.524	0.2075	0.3341	0.474	0.3841	0.3283	0.2432	0.3416	0.4443	0.2399	0.2893	0.3363	0.2486	0.5093	0.2808	0.2392	0.3492	6.3295	1.4747	4.373	6	59	1.0609104214841	1	0
"60"	6	23	1	-2	-3.63	0	12	-1	1	3.588	1.2343	-6.2056	8.2031	-4.6586	6.0586	-7.3476	-6.1931	-8.7392	-7.8429	-1.7854	2.5702	-9.5889	-2.8413	-8.314	-5.9733	-7.2025	-2.8833	-6.1747	-6.1305	-0.5766	0.3663	0.2152	0.2665	0.2991	0.3379	0.4504	0.3712	0.2757	0.3715	0.2856	0.2246	0.3092	0.3454	0.2032	0.456	0.345	0.4191	0.334	0.4596	6.3354	1.5823	5.1719	6	60	1.27759494419655	0	1
"61"	6	12	1	1	1.815	0	9	-1	0	2.625	3.0928	-1.0044	-1.0572	8.0252	-5.8188	4.9351	-4.0959	3.1937	1.2021	10.0174	-2.5637	-6e-04	1.5435	-3.9271	9.886	6.1202	-5.1501	1.209	0.9976	10.3326	0.2253	0.3251	0.3861	0.2225	0.3733	0.3407	0.307	0.2212	0.4619	0.2908	0.3204	0.2611	0.4639	0.2222	0.5144	0.4723	0.298	0.2108	0.4001	6.3171	1.6554	4.293	6	61	0.965080896043587	0	1
"62"	6	6	1	2	3.63	1	8	1	1	2.41	2.4343	9.9902	-2.3838	9.4853	5.4452	11.9645	6.4579	-8.5574	4.7124	5.3838	6.5467	0.8726	0.2471	0.3337	7.1845	-1.6444	2.6635	10.7457	2.1606	-0.0044	0.333	0.333	0.333	0.333	0.333	0.333	0.333	0.333	0.333	0.333	0.333	0.333	0.333	0.333	0.333	0.333	0.333	0.333	0.333	6.327	1.6652	4.0777	6	62	0.879626747502564	1	0
"63"	6	68	1	1	1.815	0	15	1	1	4.555	-1.8098	-3.7287	0.3276	4.9751	2.5675	-12.5913	4.8177	5.8173	5.2959	7.2186	-0.7594	-6.4434	2.3938	5.2159	4.4105	3.0111	9.4896	0.5971	4.2488	0.5157	0.2412	0.3251	0.236	0.3475	0.4558	0.4187	0.4935	0.3214	0.3628	0.2075	0.3383	0.2183	0.2439	0.2175	0.3701	0.472	0.3426	0.4844	0.2283	6.3248	1.4252	5.9891	6	63	1.51622553071192	1	0
"64"	6	57	1	-4	-7.26	1	9	-1	1	2.956	-10.2939	-12.7412	-0.067	-12.027	2.5008	-9.0917	-5.0899	-11.4611	-7.0828	-14.3839	-3.9334	-7.472	-2.7141	-9.4394	-1.9058	-9.9274	-5.6395	-16.7207	-4.0531	-5.4911	0.333	0.333	0.333	0.333	0.333	0.333	0.333	0.333	0.333	0.333	0.333	0.333	0.333	0.333	0.333	0.333	0.333	0.333	0.333	6.327	1.6163	4.5906	6	64	1.08383700308596	0	1
"65"	6	8	1	-4	-7.26	0	6	-1	1	1.959	-12.1464	-11.1571	-0.7717	-2.2395	-2.7634	-8.6022	-5.8266	-3.3245	-9.135	-10.5621	-16.9914	-2.6171	-5.4843	-14.2316	-8.6271	-0.8983	-0.0399	-14.1844	-8.6161	-5.6168	0.3599	0.4084	0.28	0.2247	0.3174	0.4418	0.3146	0.2126	0.4118	0.256	0.4156	0.3627	0.315	0.2397	0.3077	0.4168	0.2507	0.5169	0.2805	6.3331	1.4256	3.3929	6	65	0.672434138962404	0	1
"66"	6	17	1	-1	-1.815	1	12	-1	1	3.8	-3.4189	8.7016	-5.0869	0.9533	0.4739	1.0998	3.3216	-5.3634	-4.71	2.9443	-9.4457	-10.6915	1.9764	-1.7722	1.6753	2.4468	-3.3201	-7.0392	-7.8006	-2.2903	0.333	0.333	0.333	0.333	0.333	0.333	0.333	0.333	0.333	0.333	0.333	0.333	0.333	0.333	0.333	0.333	0.333	0.333	0.333	6.327	1.6049	5.4174	6	66	1.33500106673234	0	1
"67"	6	1	1	-4	-7.26	1	5	-1	1	1.531	-3.9843	-12.6242	-0.5299	-1.8578	-5.7324	-4.1738	-7.0192	-14.1868	-7.6521	-5.3723	-10.4231	-15.874	-2.2083	-5.9961	-4.9554	-2.7319	-16.783	-8.357	-12.7989	-2.7449	0.333	0.333	0.333	0.333	0.333	0.333	0.333	0.333	0.333	0.333	0.333	0.333	0.333	0.333	0.333	0.333	0.333	0.333	0.333	6.327	1.7304	3.2819	6	67	0.425921116675547	0	1
"68"	6	27	1	2	3.63	0	11	1	1	3.601	5.406	-2.5768	-4.7236	1.5613	10.7087	-3.8207	7.5584	4.495	6.2918	3.6802	6.8045	6.2332	-3.6967	8.1816	5.9747	8.4685	-5.4162	10.3766	3.8162	2.2943	0.3756	0.286	0.433	0.2393	0.3499	0.2695	0.2219	0.3522	0.4201	0.25	0.4623	0.3074	0.4485	0.2197	0.368	0.408	0.4346	0.2735	0.2132	6.3328	1.6185	5.2348	6	68	1.28121158466674	1	0
"69"	6	2	1	-2	-3.63	1	8	-1	1	2.535	-5.9195	-5.6977	4.1297	-7.446	-10.0021	1.5212	-7.558	-1.8441	-1.4149	8.2589	-12.3783	0.8037	-9.6576	-4.0744	-3.6228	-5.8848	-1.2358	-6.0697	-2.2968	-2.2856	0.333	0.333	0.333	0.333	0.333	0.333	0.333	0.333	0.333	0.333	0.333	0.333	0.333	0.333	0.333	0.333	0.333	0.333	0.333	6.327	1.4496	3.9859	6	69	0.930193637043147	0	1
"70"	6	31	1	-1	-1.815	1	8	-1	1	2.538	-0.0229	-4.1962	-2.7134	-2.6488	-4.2026	5.3676	-7.7207	9.1721	-0.8349	-5.6003	0.1006	6.9169	-10.6355	2.8781	-2.3232	-2.1981	-4.9486	-7.7159	0.4452	-4.718	0.333	0.333	0.333	0.333	0.333	0.333	0.333	0.333	0.333	0.333	0.333	0.333	0.333	0.333	0.333	0.333	0.333	0.333	0.333	6.327	1.4479	3.9884	6	70	0.931376369292196	0	1
"71"	6	59	2	-1	-1.815	1	7	-1	1	2.134	0.0175	-7.2876	-6.9275	3.9642	-1.4922	-2.7591	2.6092	-1.9624	-1.2466	-14.835	0.661	-8.4404	2.4264	3.0637	-5.8423	5.2962	-4.189	1.8874	2.383	-3.5477	0.333	0.333	0.333	0.333	0.333	0.333	0.333	0.333	0.333	0.333	0.333	0.333	0.333	0.333	0.333	0.333	0.333	0.333	0.333	6.327	1.4686	3.6182	6	71	0.757998152879562	0	1
"72"	6	40	2	1	1.815	0	8	1	1	2.551	-2.012	15.9219	3.8981	5.6713	-2.0762	2.6092	10.4701	2.8003	0.8906	0.6208	0.5759	3.0505	0.5391	-7.9097	-3.4321	-0.9538	1.1802	-0.9832	4.8617	0.5346	0.2428	0.5323	0.2894	0.2629	0.3016	0.4156	0.2125	0.3652	0.2897	0.2602	0.4901	0.369	0.2097	0.2458	0.3176	0.4203	0.2148	0.4809	0.4012	6.3213	1.6655	4.2353	6	72	0.936485439159674	1	0
"73"	6	31	2	-1	-1.815	1	11	-1	1	3.518	-2.2869	-1.7831	3.1674	-2.9701	1.4091	-4.626	0.4969	-0.6762	-7.6226	-6.5852	11.0784	-2.657	-8.9349	-0.8635	-11.5755	-2.37	-2.8349	6.5009	-2.9894	-1.8052	0.333	0.333	0.333	0.333	0.333	0.333	0.333	0.333	0.333	0.333	0.333	0.333	0.333	0.333	0.333	0.333	0.333	0.333	0.333	6.327	1.5195	5.0518	6	73	1.25789264631537	0	1
"74"	6	56	2	4	7.26	0	3	1	1	1.15	5.1987	7.3533	7.9752	3.9314	0.5345	20.0678	2.1414	3.3339	8.8174	-0.7459	6.0387	5.3502	8.5994	4.3075	13.3148	6.4996	7.3457	15.5787	12.6609	8.0875	0.4689	0.2266	0.4633	0.2529	0.454	0.2725	0.3304	0.2956	0.2121	0.5276	0.2741	0.3326	0.29	0.4142	0.3692	0.344	0.2662	0.2373	0.2961	6.3276	1.6435	2.8008	6	74	0.139761942375159	1	0
"75"	6	46	2	0	0	1	15	-1	0	4.746	4.1512	4.8238	-1.2513	-1.467	-5.1862	10.17	-6.4405	-4.2376	-2.5746	-4.4646	-6.8889	-5.1148	2.0765	2.2513	2.3592	4.8758	1.9932	8.8905	-0.3936	-4.6571	0.333	0.333	0.333	0.333	0.333	0.333	0.333	0.333	0.333	0.333	0.333	0.333	0.333	0.333	0.333	0.333	0.333	0.333	0.333	6.327	1.6439	6.3971	6	75	1.55730215801357	0	1
"76"	6	23	2	-2	-3.63	0	8	-1	1	2.285	-2.555	-0.9272	4.3506	-8.7171	-10.8325	-4.6074	-8.4761	-3.5649	0.9849	-7.8459	-5.2198	-4.4436	0.9245	-1.7257	-6.5909	7.6697	-5.456	0.1936	-11.4257	-2.5449	0.226	0.3267	0.2129	0.3307	0.2487	0.4809	0.2286	0.5029	0.3546	0.2469	0.3818	0.2703	0.3112	0.4753	0.2186	0.5082	0.3649	0.2408	0.3991	6.3291	1.4238	3.7192	6	76	0.826366024346168	0	1
"77"	6	30	2	-2	-3.63	1	7	-1	1	2.101	-1.4005	-3.036	-10.5481	-10.0534	-0.5256	-8.3084	-10.4007	-5.8188	-0.0599	-13.3382	-0.0046	-0.2119	-0.5119	2.1501	0.2156	-0.0055	3.7524	-7.1952	1.1474	-8.0196	0.333	0.333	0.333	0.333	0.333	0.333	0.333	0.333	0.333	0.333	0.333	0.333	0.333	0.333	0.333	0.333	0.333	0.333	0.333	6.327	1.4032	3.5183	6	77	0.742413421862863	0	1
"78"	6	21	2	4	7.26	1	5	1	1	1.617	10.1886	11.407	1.3611	5.0713	8.9845	0.3401	11.2216	4.6904	-3.4152	0.7283	12.7428	9.3793	8.4903	9.1378	7.8111	17.9944	10.944	3.4216	7.5443	9.008	0.333	0.333	0.333	0.333	0.333	0.333	0.333	0.333	0.333	0.333	0.333	0.333	0.333	0.333	0.333	0.333	0.333	0.333	0.333	6.327	1.7189	3.3345	6	78	0.48057258059497	1	0
"79"	6	52	2	-1	-1.815	0	9	-1	1	3.195	1.7116	-4.2134	0.3293	-8.4156	-5.0433	7.049	-4.6953	-6.1949	-1.4866	-10.3284	-0.5991	0.9822	-1.8061	4.3221	6.2504	2.3476	-0.3087	-3.111	-10.6687	-1.7124	0.3913	0.4481	0.2669	0.5252	0.2776	0.4854	0.2822	0.3214	0.2656	0.2984	0.3362	0.4078	0.4885	0.2025	0.2959	0.2195	0.3084	0.2071	0.3014	6.3293	1.4129	4.6125	6	79	1.1615870878295	0	1
"80"	6	11	2	0	0	0	10	-1	1	3.24	2.9763	-0.904	-2.5459	-8.9188	-1.9756	-4.9475	0.6097	-1.8998	-4.5324	1.4592	3.4846	-10.9344	7.2117	1.7947	7.2143	4.2904	2.3542	4.1048	-4.6306	4.5112	0.4333	0.2229	0.3104	0.3629	0.4913	0.2509	0.3438	0.2875	0.2006	0.4553	0.2019	0.2452	0.3169	0.4846	0.2451	0.4089	0.4866	0.2598	0.3152	6.3231	1.4373	4.6739	6	80	1.17557332980424	0	1
"81"	6	27	2	2	3.63	0	7	1	1	2.231	4.3459	9.5722	-0.0692	4.1979	0.3735	8.9906	5.2311	9.0886	8.7553	2.2574	-3.342	-0.4287	-1.0994	2.3196	9.9739	4.2558	13.4475	-4.1252	0.7164	-2.6475	0.2959	0.2352	0.4582	0.3382	0.2138	0.4712	0.4392	0.4072	0.2387	0.3192	0.2729	0.4463	0.505	0.2005	0.3464	0.2349	0.3895	0.3145	0.2005	6.3273	1.4768	3.7151	6	81	0.802449915450395	1	0
"82"	6	47	2	1	1.815	1	13	-1	0	4.286	-2.7414	-5.2935	9.4679	10.5661	0.6576	-0.2327	0.837	2.5069	-5.1889	-2.9904	-0.2302	-2.1722	7.2083	1.3666	8.9817	3.555	9.0734	1.0925	2.5532	-3.6637	0.333	0.333	0.333	0.333	0.333	0.333	0.333	0.333	0.333	0.333	0.333	0.333	0.333	0.333	0.333	0.333	0.333	0.333	0.333	6.327	1.5026	5.7866	6	82	1.45535389705139	0	1
"83"	6	62	2	2	3.63	1	14	1	1	4.621	4.9627	4.4305	-5.3423	5.787	4.75	12.8723	3.9756	2.3505	3.0801	10.1735	2.012	-5.9129	3.6361	6.3769	9.9392	-5.8671	6.1925	3.7828	3.0265	0.9044	0.333	0.333	0.333	0.333	0.333	0.333	0.333	0.333	0.333	0.333	0.333	0.333	0.333	0.333	0.333	0.333	0.333	0.333	0.333	6.327	1.5215	6.1547	6	83	1.53061113188813	1	0
"84"	6	39	2	0	0	0	12	-1	0	3.809	3.9587	3.9202	-6.692	-8.871	-3.4624	-1.9012	3.026	2.0501	-2.5619	-7.5365	-2.1663	0.4284	-2.5578	-1.0079	0.7798	6.321	5.287	-2.8217	11.9933	-0.1722	0.3361	0.2074	0.479	0.3103	0.3631	0.2681	0.4928	0.4088	0.2405	0.3196	0.2159	0.2787	0.3366	0.2141	0.3972	0.201	0.5303	0.2817	0.4535	6.3347	1.5846	5.4093	6	84	1.33736668749647	0	1
"85"	6	37	2	-2	-3.63	0	5	-1	1	1.32	-6.5012	-10.535	-7.7445	1.0589	-9.5189	-10.8588	-3.0374	-0.8442	-9.4937	-7.0677	5.3777	-7.1807	4.72	-2.0823	3.2047	0.9867	-3.4815	-1.9236	-5.4783	-1.2155	0.2752	0.3305	0.433	0.2699	0.4841	0.3712	0.2044	0.3734	0.3474	0.4165	0.3655	0.2827	0.2143	0.3652	0.2283	0.2689	0.2979	0.4656	0.3421	6.3361	1.658	2.987	6	85	0.27763173659828	0	1
"86"	6	29	2	-4	-7.26	1	7	-1	1	2.176	-4.3419	-2.4374	-10.0829	-1.3206	-7.5094	-5.1357	-11.2394	-5.8552	-9.2351	-3.2768	-12.1196	-19.926	-9.4426	-10.4896	-9.6006	-3.1829	0.7218	-7.8418	0.3596	-13.0089	0.333	0.333	0.333	0.333	0.333	0.333	0.333	0.333	0.333	0.333	0.333	0.333	0.333	0.333	0.333	0.333	0.333	0.333	0.333	6.327	1.7083	3.893	6	86	0.777488328993696	0	1
"87"	6	25	2	0	0	0	11	1	0	3.421	1.5994	-2.1526	2.7857	5.5907	7.26	-8.902	4.8054	-5.0581	-4.2433	5.0967	-2.8747	0.4976	4.7571	-11.8273	-2.1233	2.6893	-1.6742	4.3474	-2.5315	1.0623	0.3301	0.4653	0.2793	0.252	0.3493	0.2323	0.319	0.4681	0.2528	0.3249	0.4076	0.361	0.2836	0.2279	0.5091	0.2871	0.3364	0.2562	0.3807	6.3227	1.7034	5.1383	6	87	1.22993290599547	1	0
"88"	6	17	2	-1	-1.815	1	15	-1	1	4.688	-4.7699	2.5839	-11.4548	5.773	-6.1595	4.5454	-3.015	0.7999	0.5432	-0.7018	-3.5076	-6.8454	5.4809	-4.1561	-2.4198	2.5752	-1.7968	4.6091	-7.2488	-9.3909	0.333	0.333	0.333	0.333	0.333	0.333	0.333	0.333	0.333	0.333	0.333	0.333	0.333	0.333	0.333	0.333	0.333	0.333	0.333	6.327	1.6511	6.3387	6	88	1.54500605227471	0	1
"89"	6	60	2	0	0	1	14	1	1	4.412	-4.5504	-1.9521	1.3092	-0.3383	3.2524	-7.5996	8.3321	1.909	-5.8804	3.3401	1.5638	2.0967	-5.549	-2.688	-3.6332	6.7344	-3.6944	4.0185	-7.0524	8.4011	0.333	0.333	0.333	0.333	0.333	0.333	0.333	0.333	0.333	0.333	0.333	0.333	0.333	0.333	0.333	0.333	0.333	0.333	0.333	6.327	1.423	5.8461	6	89	1.48432810139126	1	0
"90"	6	18	2	0	0	1	9	-1	1	2.673	0.0246	2.3123	6.5988	0.3589	-5.2273	4.0287	-0.9516	-5.588	8.0564	3.3317	6.9243	-6.5424	-0.4148	-0.0111	-3.2752	2.4097	-1.6068	-7.7271	6.4078	-7.2412	0.333	0.333	0.333	0.333	0.333	0.333	0.333	0.333	0.333	0.333	0.333	0.333	0.333	0.333	0.333	0.333	0.333	0.333	0.333	6.327	1.5537	4.224	6	90	0.983201437156782	0	1
"91"	6	22	2	-4	-7.26	0	7	-1	1	2.193	-4.095	-2.6162	5.1472	-16.7063	-12.0039	-2.7769	-6.0161	-14.3173	-9.7225	-7.3826	-13.0734	-8.4007	-5.4655	-3.9948	-3.6304	-11.3121	-7.2999	-9.9948	-3.9232	-7.9496	0.2305	0.5055	0.246	0.3938	0.4543	0.2099	0.4095	0.2879	0.3829	0.332	0.3606	0.2845	0.4389	0.2121	0.2617	0.2046	0.2491	0.4486	0.4145	6.327	1.5983	3.7941	6	91	0.785270469435751	0	1
"92"	6	58	2	-2	-3.63	1	9	-1	1	2.725	-4.1434	1.0387	-9.2713	8.6894	-4.5495	-3.2441	-6.3502	-4.9303	-9.5944	-7.7889	4.6362	-2.7701	0.8728	-2.8741	-0.8784	-3.8436	-9.2859	-9.4919	-7.9525	-0.0578	0.333	0.333	0.333	0.333	0.333	0.333	0.333	0.333	0.333	0.333	0.333	0.333	0.333	0.333	0.333	0.333	0.333	0.333	0.333	6.327	1.4729	4.1928	6	92	1.00246842811521	0	1
"93"	6	49	2	4	7.26	1	9	1	1	2.839	11.8754	4.056	4.8505	2.2542	2.5883	-0.4357	3.0144	5.1812	15.2606	0.5695	10.2779	5.2683	13.0418	18.2356	9.3121	10.9877	8.3818	6.1124	7.8358	6.0643	0.333	0.333	0.333	0.333	0.333	0.333	0.333	0.333	0.333	0.333	0.333	0.333	0.333	0.333	0.333	0.333	0.333	0.333	0.333	6.327	1.4594	4.3062	6	93	1.04345187749083	1	0
"94"	6	36	2	-4	-7.26	0	5	-1	1	1.739	-7.7261	-6.4112	-5.0849	-9.8997	-0.0036	-10.0094	-7.4574	-6.8499	-2.9733	-13.801	-19.762	-7.7687	-15.1828	-5.505	-3.2116	-5.9519	-4.984	-9.7522	-1.9603	1.0913	0.5033	0.3361	0.3951	0.2131	0.4238	0.2786	0.397	0.2882	0.3443	0.2544	0.4557	0.245	0.4856	0.2643	0.3472	0.2438	0.2138	0.4289	0.215	6.3334	1.6874	3.4398	6	94	0.553310235372146	0	1
"95"	6	42	2	4	7.26	0	6	1	1	2.049	2.5547	6.3667	6.5121	8.1988	-1.1109	16.2793	4.311	7.2256	8.9685	6.3485	6.3058	8.0246	8.4258	9.0438	11.5774	10.4633	0.9183	-3.8092	14.3796	14.493	0.3861	0.2589	0.2253	0.3423	0.3955	0.4505	0.3381	0.2714	0.3717	0.3197	0.2737	0.238	0.3536	0.432	0.2738	0.2399	0.5069	0.4126	0.2359	6.3257	1.4019	3.4664	6	95	0.717351869256763	1	0
"96"	6	68	2	1	1.815	0	9	1	1	3.363	-3.0927	-2.219	5.217	4.5291	0.4369	-3.4091	4.4286	-0.7503	1.5304	-3.4865	8.1932	12.4436	-2.034	-1.087	6.6292	3.1884	-6.6293	8.516	-0.8875	3.7949	0.4931	0.2848	0.4175	0.291	0.4867	0.3775	0.2875	0.2219	0.5064	0.2832	0.2429	0.4853	0.244	0.3576	0.2428	0.2736	0.3426	0.2085	0.2857	6.3328	1.5203	4.8971	6	96	1.21283343275813	1	0
"97"	6	43	2	-4	-7.26	1	8	-1	1	2.366	-2.8553	1.8403	-4.8923	-3.7878	-10.3175	-4.1794	-12.0668	-1.2386	-7.0651	-12.7167	-2.4992	-9.6142	-6.1807	-12.5068	-11.2265	-13.8788	-3.01	-16.4079	-2.1215	-11.769	0.333	0.333	0.333	0.333	0.333	0.333	0.333	0.333	0.333	0.333	0.333	0.333	0.333	0.333	0.333	0.333	0.333	0.333	0.333	6.327	1.7197	4.1005	6	97	0.861200765556195	0	1
"98"	6	70	2	4	7.26	0	8	1	1	2.418	3.2939	3.7722	9.667	10.1819	-4.7892	1.3914	15.0165	6.455	13.4975	4.8937	6.6207	4.6664	6.7824	11.4924	12.7982	6.8425	10.1454	0.4531	10.6468	11.7398	0.3303	0.5103	0.4822	0.2427	0.2996	0.2289	0.2983	0.2465	0.341	0.4294	0.2367	0.2915	0.2094	0.2543	0.5002	0.3536	0.4412	0.3764	0.2539	6.3265	1.7274	4.152	6	98	0.882940752192601	1	0
"99"	6	69	2	2	3.63	0	10	1	1	3.084	1.5306	2.7544	-0.5321	9.7487	11.5803	8.881	-4.6389	1.8807	5.5822	0.4871	9.8701	5.6817	7.499	-0.1086	3.2618	5.7794	5.7409	-0.9367	7.6136	-7.4148	0.4158	0.4656	0.3483	0.2793	0.2062	0.2971	0.3555	0.3021	0.2329	0.4466	0.2662	0.2168	0.4407	0.5018	0.3391	0.3804	0.3354	0.2969	0.2008	6.3277	1.6448	4.7347	6	99	1.12622745570108	1	0
"100"	6	41	2	2	3.63	0	6	1	1	1.71	4.7419	5.4145	9.9013	14.3676	3.0836	2.2111	3.9352	4.0481	-5.0251	4.4436	0.6089	0.1402	-2.8404	0.9163	10.2557	-3.9834	1.8079	0.2652	9.3866	6.9321	0.4884	0.291	0.2177	0.2913	0.2631	0.4287	0.3234	0.2141	0.4412	0.3408	0.486	0.3984	0.303	0.4106	0.2014	0.2455	0.424	0.3559	0.2011	6.3255	1.6194	3.3273	6	100	0.536493370514568	1	0
"101"	6	13	2	2	3.63	0	7	-1	0	2.511	-0.5956	6.8026	-4.5563	4.4192	9.2175	-5.7736	6.2309	1.5028	4.9423	1.2654	9.2572	-1.8656	1.0831	8.2931	7.6161	-1.643	13.0609	5.9272	4.0212	4.9092	0.3709	0.2572	0.5179	0.3044	0.497	0.3159	0.4018	0.3022	0.2263	0.4703	0.2226	0.3043	0.2275	0.4847	0.2371	0.3971	0.3622	0.202	0.233	6.3344	1.4526	3.9616	6	101	0.920681080175448	0	1
"102"	6	16	2	-2	-3.63	1	7	-1	1	2.18	-2.8029	3.2051	-2.3487	0.179	-12.9902	-7.8924	-3.503	-8.2746	0.8055	-6.7276	-5.3978	-2.9494	-8.5671	-4.2834	1.4846	7.1061	-9.4359	-9.2346	-1.2291	-1.5304	0.333	0.333	0.333	0.333	0.333	0.333	0.333	0.333	0.333	0.333	0.333	0.333	0.333	0.333	0.333	0.333	0.333	0.333	0.333	6.327	1.649	3.8307	6	102	0.779324876800998	0	1
"103"	6	44	2	-2	-3.63	1	5	-1	1	1.538	-7.192	-2.0735	0.1011	-8.848	-1.102	-5.6754	-12.0171	2.9026	-4.385	-4.6429	1.098	3.157	4.6783	-12.7346	-4.7098	-0.6292	-6.4784	-5.8346	0.7912	-10.0325	0.333	0.333	0.333	0.333	0.333	0.333	0.333	0.333	0.333	0.333	0.333	0.333	0.333	0.333	0.333	0.333	0.333	0.333	0.333	6.327	1.5979	3.1384	6	103	0.430482871083452	0	1
"104"	6	28	2	4	7.26	0	6	1	1	1.595	8.8399	10.6803	0.8287	10.2121	10.2791	0.2914	5.5204	3.8726	-1.9318	13.057	4.2861	14.3161	4.534	15.3121	7.9975	2.7369	2.7953	15.1705	6.7591	9.3209	0.2261	0.3298	0.3043	0.2515	0.441	0.2543	0.3282	0.3973	0.3251	0.2881	0.2342	0.2654	0.3041	0.4119	0.3067	0.3623	0.5154	0.2894	0.4954	6.3304	1.6414	3.2454	6	104	0.466873736236808	1	0
"105"	6	50	2	-4	-7.26	0	4	-1	1	1.221	-9.8687	-15.0746	-12.392	-0.1961	-12.7549	-9.6012	-4.3613	-4.8718	-15.5576	-8.3084	-12.0513	-4.8919	-1.8535	-2.3758	-12.2105	-10.5388	-2.7429	-3.4855	1.2946	-5.0413	0.4158	0.2979	0.263	0.2992	0.5313	0.2987	0.3936	0.4608	0.2878	0.356	0.2172	0.3054	0.4897	0.3694	0.2242	0.252	0.3664	0.2978	0.2043	6.3305	1.5094	2.738	6	105	0.199670195128568	0	1
"106"	6	66	2	-1	-1.815	0	17	-1	1	5.679	-1.3695	1.1183	-2.0913	-9.9172	-8.2375	-6.6637	-2.3817	-6.1058	1.645	7.0967	6.8842	2.8233	2.2383	-10.2799	-2.2692	-4.8372	0.5362	-1.7403	1.8385	-5.9388	0.5246	0.2745	0.3665	0.2244	0.3574	0.2259	0.3956	0.258	0.4249	0.2017	0.336	0.4399	0.261	0.3347	0.4529	0.2423	0.4129	0.2376	0.3602	6.3312	1.5556	7.2463	6	106	1.7367751608953	0	1
"107"	6	7	2	4	7.26	1	3	1	1	0.893	8.9696	7.5587	9.079	4.806	10.2446	19.8153	13.0867	6.5383	7.5199	0.4057	1.6325	13.1637	8.2439	8.1517	6.9296	-0.9664	11.0528	-0.0445	2.9751	5.6146	0.333	0.333	0.333	0.333	0.333	0.333	0.333	0.333	0.333	0.333	0.333	0.333	0.333	0.333	0.333	0.333	0.333	0.333	0.333	6.327	1.6674	2.5769	6	107	-0.113168698105638	1	0
"108"	6	34	2	2	3.63	1	14	1	1	4.409	3.4898	-3.9496	8.8185	-4.0853	-0.7722	2.8277	4.0228	-0.8667	10.5248	3.9259	1.0581	9.7362	1.0583	-3.0742	11.676	-0.9504	5.4951	9.2382	7.6339	8.7898	0.333	0.333	0.333	0.333	0.333	0.333	0.333	0.333	0.333	0.333	0.333	0.333	0.333	0.333	0.333	0.333	0.333	0.333	0.333	6.327	1.4506	5.8769	6	108	1.4836479063758	1	0
"109"	6	38	2	-1	-1.815	0	17	-1	1	5.678	1.4132	5.0188	4.3055	-2.7732	-0.1556	-4.6392	5.1785	4.0459	2.0379	-7.6815	-8.2402	-9.1516	-3.473	1.3329	-2.2202	-5.9023	-7.7773	-9.7487	-1.8709	2.1054	0.395	0.3201	0.4873	0.3493	0.2031	0.3119	0.3583	0.2907	0.2251	0.3954	0.3217	0.3576	0.4344	0.3232	0.4984	0.2885	0.2276	0.3093	0.2269	6.3241	1.5562	7.2455	6	109	1.73659905805078	0	1
"110"	6	15	2	-4	-7.26	1	8	-1	1	2.349	-5.7998	-1.456	-12.2262	-12.215	-5.4325	-12.0985	-3.257	-6.6394	1.3849	-7.7473	-5.6533	-13.6544	-12.2238	-0.3416	-7.0012	-1.5097	-17.2784	-5.6931	-6.5418	-9.68	0.333	0.333	0.333	0.333	0.333	0.333	0.333	0.333	0.333	0.333	0.333	0.333	0.333	0.333	0.333	0.333	0.333	0.333	0.333	6.327	1.5935	3.9502	6	110	0.853989705676776	0	1
"111"	6	3	2	-1	-1.815	1	15	1	0	4.99	-3.5749	-2.1331	-0.2917	-4.9346	-3.3948	-4.5789	-1.6626	10.6612	-0.9114	3.4618	-2.0654	-3.8883	-10.3049	8.8848	-5.3625	-1.5318	-1.525	-0.2445	-2.3596	-9.8411	0.333	0.333	0.333	0.333	0.333	0.333	0.333	0.333	0.333	0.333	0.333	0.333	0.333	0.333	0.333	0.333	0.333	0.333	0.333	6.327	1.468	6.4571	6	111	1.60743590976343	1	0
"112"	6	24	2	-1	-1.815	0	13	-1	1	4.07	-4.8787	-3.8007	4.1086	-10.1824	1.4426	-9.482	-2.8567	-0.4454	0.7364	2.1017	-0.4417	1.8761	3.8484	-4.1033	-4.0034	8.4646	-6.5623	-4.6227	2.2346	-8.8392	0.246	0.5305	0.3707	0.2735	0.3964	0.3655	0.2337	0.3197	0.2078	0.4243	0.2075	0.2974	0.516	0.2704	0.5004	0.2831	0.3484	0.2262	0.3128	6.3302	1.6891	5.7543	6	112	1.4036429994545	0	1
"113"	6	32	2	0	0	1	15	1	1	4.815	-0.3714	-9.5889	-3.0891	-7.4267	0.288	4.4711	0.5867	5.6122	-3.384	4.0245	0.4945	-4.5839	-1.1216	7.2673	-1.087	-1.9971	6.7965	-7.2749	6.0248	5.9974	0.333	0.333	0.333	0.333	0.333	0.333	0.333	0.333	0.333	0.333	0.333	0.333	0.333	0.333	0.333	0.333	0.333	0.333	0.333	6.327	1.5394	6.3495	6	113	1.57173604525009	1	0
"114"	6	1	2	-4	-7.26	1	7	-1	1	2.198	-3.881	6.8663	-6.371	-12.2695	-4.1373	-6.4369	-6.0151	-12.2813	-12.5945	-5.974	-10.9987	-15.2858	-6.2156	-11.9423	-6.0558	-4.7399	-6.9725	-9.6731	-9.866	-0.4685	0.333	0.333	0.333	0.333	0.333	0.333	0.333	0.333	0.333	0.333	0.333	0.333	0.333	0.333	0.333	0.333	0.333	0.333	0.333	6.327	1.6444	3.8653	6	114	0.78754785598143	0	1
"115"	6	26	2	1	1.815	0	11	1	1	3.612	-3.0363	-3.0724	0.4316	3.2254	-1.4913	4.0912	10.1851	0.0385	2.6701	7.6494	-1.8634	-7.1065	-0.3219	9.6769	-7.1621	0.3037	3.8514	1.0926	8.1619	6.9873	0.3046	0.4793	0.3618	0.3957	0.3193	0.4455	0.3676	0.2889	0.3246	0.2531	0.3214	0.4004	0.3371	0.1999	0.2913	0.5137	0.2024	0.3119	0.208	6.3266	1.5746	5.196	6	115	1.28426163555474	1	0
"116"	6	57	2	-4	-7.26	1	4	-1	1	1.301	-10.5048	-7.7936	-7.7221	-12.6566	-7.7427	-2.7466	-12.1165	-9.5079	-14.5107	-5.7045	5.5039	-7.8253	-16.2807	-4.1486	0.1099	-4.182	-9.08	-4.0191	-6.9552	-7.1977	0.333	0.333	0.333	0.333	0.333	0.333	0.333	0.333	0.333	0.333	0.333	0.333	0.333	0.333	0.333	0.333	0.333	0.333	0.333	6.327	1.5995	2.9189	6	116	0.263133199530368	0	1
"117"	6	55	2	2	3.63	0	3	1	1	0.876	5.2596	7.0089	9.0566	5.4308	-0.4553	-1.5831	6.5656	1.1464	3.0135	5.0528	9.4215	6.4441	-7.4855	0.9708	-1.5307	1.3566	1.5405	4.8989	16.0354	0.6337	0.3451	0.2801	0.368	0.2126	0.478	0.2483	0.277	0.4967	0.3513	0.3856	0.254	0.2921	0.4162	0.2578	0.3158	0.2061	0.2727	0.3491	0.5246	6.3311	1.6313	2.5267	6	117	-0.132389188045746	1	0
"118"	6	45	2	-1	-1.815	1	4	-1	1	1.101	-5.1514	-0.801	-5.9658	-3.492	4.6491	-7.4652	-9.9387	6.3631	1.8787	-5.1481	2.6724	-6.0596	5.6906	-1.6291	-4.1075	5.1349	-7.6553	-3.0646	1.8006	-5.036	0.333	0.333	0.333	0.333	0.333	0.333	0.333	0.333	0.333	0.333	0.333	0.333	0.333	0.333	0.333	0.333	0.333	0.333	0.333	6.327	1.4014	2.5183	6	118	0.0962188577405429	0	1
"119"	6	2	2	-2	-3.63	1	3	-1	1	0.842	-3.5009	-13.4248	-2.4809	-3.1358	-2.668	-6.2824	-8.9172	-7.5002	0.842	-3.5327	-2.0617	0.3013	-1.0983	-4.7387	-9.5419	3.9936	-7.0618	7.1318	-9.8534	0.9519	0.333	0.333	0.333	0.333	0.333	0.333	0.333	0.333	0.333	0.333	0.333	0.333	0.333	0.333	0.333	0.333	0.333	0.333	0.333	6.327	1.4903	2.3431	6	119	-0.17197526473981	0	1
"120"	6	51	2	-2	-3.63	0	10	-1	1	3.213	-4.0193	2.9528	-6.7724	-5.6182	-5.2501	-9.8662	8.0176	-3.5541	-7.5664	-0.8391	-5.9927	-7.9773	-4.3602	-1.3883	-10.7287	-6.7561	-2.2622	2.6558	-7.7987	4.1315	0.2396	0.5312	0.2012	0.3359	0.504	0.2076	0.4252	0.3325	0.2485	0.5034	0.2316	0.2848	0.4136	0.2539	0.383	0.286	0.2153	0.4301	0.2974	6.3247	1.7273	4.947	6	120	1.16720508013372	0	1
"121"	6	67	2	0	0	0	10	-1	1	3.351	1.0634	-12.7091	2.6632	7.3421	1.7302	4.075	-1.6032	-1.1411	-2.3279	5.0681	1.0132	1.9604	7.887	4.9421	-0.162	-3.8699	1.6375	-7.1003	-6.3647	-2.5589	0.3204	0.3584	0.4379	0.233	0.501	0.2573	0.3204	0.2043	0.3955	0.3289	0.2877	0.255	0.2252	0.4983	0.4481	0.268	0.3445	0.2729	0.3608	6.3176	1.4535	4.8187	6	121	1.20925880875517	0	1
"122"	6	63	2	4	7.26	1	3	1	1	0.981	11.0594	5.6141	9.1326	8.9523	12.4534	-2.9915	1.3393	3.61	6.9288	9.1244	7.24	14.4297	3.4644	8.2461	18.1021	11.8151	1.2131	8.9694	2.4181	4.4172	0.333	0.333	0.333	0.333	0.333	0.333	0.333	0.333	0.333	0.333	0.333	0.333	0.333	0.333	0.333	0.333	0.333	0.333	0.333	6.327	1.6734	2.665	6	122	-0.019182819416774	1	0
"123"	6	20	2	2	3.63	1	5	1	1	1.44	0.8997	9.4579	0.9991	15.8288	3.6858	0.3484	3.3159	-6.8341	8.1808	-1.011	1.0104	2.3932	6.4829	10.2638	7.1822	3.276	3.2539	-0.407	5.5732	-2.4944	0.333	0.333	0.333	0.333	0.333	0.333	0.333	0.333	0.333	0.333	0.333	0.333	0.333	0.333	0.333	0.333	0.333	0.333	0.333	6.327	1.5161	2.9569	6	123	0.364643113587909	1	0
"124"	6	10	2	-1	-1.815	0	12	-1	1	4.044	1.0726	-0.3221	-4.7555	-0.8765	3.677	-3.3137	-7.7302	2.2072	-3.0197	-3.4176	-8.2993	5.6446	-0.5963	-2.3374	-7.3276	7.997	3.5391	-2.8484	-3.2806	-12.2329	0.239	0.3132	0.4985	0.2804	0.3601	0.4181	0.3444	0.2819	0.3568	0.3962	0.2521	0.3558	0.246	0.2036	0.2503	0.441	0.3628	0.4256	0.2924	6.3184	1.4225	5.461	6	124	1.39723430115822	0	1
"125"	6	61	2	1	1.815	1	7	1	1	2.295	4.2693	-4.4685	10.4265	2.5116	10.2031	-3.6807	7.1248	-3.7483	3.0954	0.7298	-2.4624	-4.3845	7.3924	-0.5689	-3.5908	6.6063	0.7303	-2.5974	4.7903	4.2289	0.333	0.333	0.333	0.333	0.333	0.333	0.333	0.333	0.333	0.333	0.333	0.333	0.333	0.333	0.333	0.333	0.333	0.333	0.333	6.327	1.5579	3.8454	6	125	0.830732843512508	1	0
"126"	6	64	2	-4	-7.26	0	4	-1	1	1.122	-5.4863	-6.2647	-4.6021	-6.4372	-12.5905	2.0255	-4.0167	-5.1886	-17.7126	-8.8058	-10.4514	-7.6328	-9.6082	-10.4512	-5.9101	1.87	-13.3599	-14.8439	-5.4058	-1.788	0.2156	0.3708	0.2361	0.3252	0.4675	0.2765	0.3335	0.514	0.3376	0.4327	0.2478	0.3947	0.2708	0.2985	0.3609	0.2236	0.4499	0.3406	0.2221	6.3185	1.6673	2.8058	6	126	0.115112807100505	0	1
"127"	6	6	2	2	3.63	1	6	1	1	1.668	0.1764	6.6535	6.8677	-0.8044	2.3327	16.0605	-4.2288	-3.7649	5.2775	-0.1378	3.1955	13.146	2.994	-0.845	5.3992	6.2316	5.4697	2.7191	3.839	2.4129	0.333	0.333	0.333	0.333	0.333	0.333	0.333	0.333	0.333	0.333	0.333	0.333	0.333	0.333	0.333	0.333	0.333	0.333	0.333	6.327	1.688	3.3693	6	127	0.511625303936555	1	0
"128"	6	8	2	-4	-7.26	0	3	-1	1	0.835	-6.2288	-12.1226	-3.4856	1.1982	-13.6748	-13.5212	-1.8108	-0.3042	-11.7881	-11.6795	-8.9259	-9.3271	-8.9749	-13.5196	-2.6078	-3.1028	-0.9399	-8.753	-11.0894	-4.3627	0.4234	0.2528	0.3396	0.3762	0.2722	0.2238	0.3604	0.5061	0.3834	0.2544	0.3785	0.2884	0.3208	0.2063	0.5177	0.2829	0.2428	0.4407	0.2491	6.3195	1.5547	2.4028	6	128	-0.180323554131282	0	1
"129"	6	33	2	1	1.815	1	4	1	1	1.24	4.6703	-1.9271	4.5764	-1.6183	-7.5117	-5.5759	3.6377	7.7674	6.7361	10.9736	-1.8438	-5.7347	0.8923	6.6638	2.9961	-1.0736	-0.3245	3.9491	6.4385	4.4771	0.333	0.333	0.333	0.333	0.333	0.333	0.333	0.333	0.333	0.333	0.333	0.333	0.333	0.333	0.333	0.333	0.333	0.333	0.333	6.327	1.4356	2.6905	6	129	0.215111379616945	1	0
"130"	6	65	2	-2	-3.63	0	10	-1	1	3.328	-2.0811	5.6426	-18.1228	-7.923	-2.6529	-3.67	2.2689	-1.1166	-8.7817	-4.3225	-8.7653	-0.7202	-0.578	-6.2796	0.9284	-3.6292	-7.083	-3.0457	-1.4594	-2.5326	0.2249	0.5321	0.2816	0.3423	0.2964	0.419	0.2814	0.353	0.396	0.4299	0.3112	0.2734	0.3108	0.2441	0.4527	0.322	0.2894	0.3634	0.213	6.3367	1.476	4.8119	6	130	1.20237152295896	0	1
"131"	6	4	2	0	0	1	17	1	1	5.451	-3.698	-2.1378	-0.5769	5.0941	-1.0201	-0.0779	5.2801	-1.2077	-3.6445	3.7741	2.1627	0.2216	-0.5524	2.8163	-0.0791	12.1966	-13.4092	-1.7726	1.0638	-4.7763	0.333	0.333	0.333	0.333	0.333	0.333	0.333	0.333	0.333	0.333	0.333	0.333	0.333	0.333	0.333	0.333	0.333	0.333	0.333	6.327	1.6462	7.1019	6	131	1.69579907808214	1	0
"132"	6	5	2	1	1.815	1	7	1	1	2.271	4.146	6.7838	-7.7961	3.9219	6.0402	-5.385	-0.2198	-5.795	0.6088	4.4953	7.7091	0.589	2.4266	-1.5225	-2.2516	-1.326	5.0839	2.5425	11.4073	5.9372	0.333	0.333	0.333	0.333	0.333	0.333	0.333	0.333	0.333	0.333	0.333	0.333	0.333	0.333	0.333	0.333	0.333	0.333	0.333	6.327	1.6518	3.9387	6	132	0.820220263123421	1	0
"133"	6	35	2	4	7.26	1	5	1	1	1.516	2.3588	15.7015	0.9996	4.0567	11.105	12.2566	17.3967	4.8218	8.6688	5.8588	1.5377	8.8898	6.8986	7.1246	11.4561	6.946	11.7746	0.3982	8.5832	-0.2357	0.333	0.333	0.333	0.333	0.333	0.333	0.333	0.333	0.333	0.333	0.333	0.333	0.333	0.333	0.333	0.333	0.333	0.333	0.333	6.327	1.4186	2.9336	6	133	0.41607528722018	1	0
"134"	6	54	2	1	1.815	0	8	1	1	2.249	6.5109	-4.4963	4.9032	3.4241	-5.3524	6.3163	-1.9707	8.9273	-7.2465	0.2345	7.3768	-6.9554	3.8973	3.4562	3.5373	1.9374	7.5012	-1.7503	0.8997	5.2656	0.2969	0.2405	0.3265	0.4088	0.3513	0.2719	0.2213	0.3196	0.2234	0.3128	0.445	0.3202	0.489	0.2274	0.2914	0.4035	0.3022	0.3543	0.517	6.3232	1.5521	3.7997	6	134	0.810485672977179	1	0
"135"	6	14	2	4	7.26	0	3	1	1	0.785	7.324	13.0323	9.4456	12.3225	8.387	9.9682	9.0602	1.6001	3.418	-4.6842	5.7976	3.7668	3.6459	7.8749	2.7846	4.8876	17.5082	11.6268	2.8012	12.6576	0.2058	0.2562	0.4319	0.2037	0.4778	0.3397	0.2459	0.2025	0.3862	0.5026	0.3719	0.221	0.2959	0.3841	0.2017	0.2926	0.4189	0.5033	0.3764	6.3181	1.6491	2.4354	6	135	-0.242071561199729	1	0
"136"	6	48	2	2	3.63	1	6	1	1	1.714	7.2133	9.7664	4.6979	-6.512	8.8007	2.3713	-4.4434	5.5823	5.1844	0.3499	-0.1186	3.5295	4.6947	2.2186	7.4838	12.5084	6.4016	-2.1693	-2.6216	5.7814	0.333	0.333	0.333	0.333	0.333	0.333	0.333	0.333	0.333	0.333	0.333	0.333	0.333	0.333	0.333	0.333	0.333	0.333	0.333	6.327	1.4941	3.2145	6	136	0.538829820175588	1	0
"137"	6	12	2	1	1.815	0	11	1	1	3.518	1.1189	-2.2594	3.1487	7.939	-10.1638	0.3219	0.6452	6.6421	-4.7685	11.7128	0.969	3.2904	4.7007	0.3704	7.4696	3.6609	-1.9103	-3.0067	5.5203	0.5317	0.2308	0.4612	0.2527	0.4713	0.2997	0.3506	0.2165	0.3918	0.2466	0.368	0.2737	0.3026	0.3712	0.4931	0.4306	0.2011	0.3199	0.4008	0.2409	6.3231	1.4697	4.9848	6	137	1.25789264631537	1	0
"138"	6	9	2	-2	-3.63	0	10	-1	1	3.331	-7.6137	-6.0721	4.5159	-8.758	6.212	-9.7438	-1.2365	1.3256	-4.4259	-3.3263	-6.6232	-0.5448	-1.5021	0.0098	-6.8571	-11.9015	-5.2265	2.6239	-6.1668	-7.2932	0.403	0.2284	0.4967	0.2881	0.248	0.3251	0.4615	0.3826	0.274	0.4904	0.4595	0.2214	0.3461	0.2716	0.3357	0.4368	0.2083	0.241	0.2049	6.323	1.6727	5.015	6	138	1.20327255921154	0	1
"139"	6	53	2	0	0	0	13	-1	0	4.011	2.1771	-0.1537	-6.929	3.4492	1.9109	2.5259	-3.5949	-2.5043	-0.7876	2.3135	-4.371	6.5104	-6.5266	1.9787	-3.6476	3.3792	-3.2299	-0.6688	-5.8914	13.5054	0.3387	0.2913	0.2601	0.5258	0.3498	0.2231	0.4361	0.2372	0.2857	0.2502	0.2203	0.3006	0.4705	0.2382	0.2639	0.3363	0.4559	0.3209	0.5173	6.3219	1.5491	5.5785	6	139	1.38904058678792	0	1
"140"	6	19	2	1	1.815	1	14	1	1	4.517	2.5582	-6.4972	-10.1262	2.8119	0.0987	11.0385	-1.0959	2.5451	4.4533	9.7306	3.3245	0.5919	4.9906	-0.6365	7.7916	0.8233	3.8024	-2.0175	0.7504	2.7605	0.333	0.333	0.333	0.333	0.333	0.333	0.333	0.333	0.333	0.333	0.333	0.333	0.333	0.333	0.333	0.333	0.333	0.333	0.333	6.327	1.6186	6.1508	6	140	1.50784805667247	1	0
"141"	6	17	3	-1	-1.815	1	7	-1	1	2.248	-2.703	2.463	-1.069	0.1331	-8.2476	-1.2651	-10.5877	-2.1544	2.3711	4.1893	-6.5568	-0.8779	-0.1212	-0.895	4.5774	3.9493	-12.9554	-2.3836	-6.6069	3.5822	0.333	0.333	0.333	0.333	0.333	0.333	0.333	0.333	0.333	0.333	0.333	0.333	0.333	0.333	0.333	0.333	0.333	0.333	0.333	6.327	1.6315	3.8825	6	141	0.810040932031445	0	1
"142"	6	2	3	-2	-3.63	1	13	-1	1	4.238	-0.6242	0.6972	-1.6664	0.2105	-4.1811	6.9923	0.0489	-2.8003	-3.8016	-2.024	-13.5974	-6.4187	-7.4585	-6.6952	-3.0273	-5.8029	-9.66	2.3679	-13.2616	-3.5867	0.333	0.333	0.333	0.333	0.333	0.333	0.333	0.333	0.333	0.333	0.333	0.333	0.333	0.333	0.333	0.333	0.333	0.333	0.333	6.327	1.4658	5.7058	6	142	1.44409145984611	0	1
"143"	6	42	3	4	7.26	0	4	1	1	1.142	6.96	7.0636	8.3094	2.6601	10.0379	8.5479	4.4974	11.6886	7.5532	16.3736	12.9782	11.2625	6.3543	13.3482	0.7683	11.6397	5.0347	-4.913	4.8669	2.0127	0.2956	0.3317	0.2262	0.4538	0.2747	0.2098	0.5109	0.2775	0.3264	0.2096	0.2419	0.3282	0.22	0.4677	0.3231	0.2546	0.4941	0.3561	0.5224	6.3241	1.5154	2.6589	6	143	0.132781111233818	1	0
"144"	6	18	3	0	0	1	7	-1	0	2.127	-3.3297	-0.056	-0.5671	-4.2541	2.3354	-4.8412	4.1093	13.7172	-5.0122	-1.7174	-5.9836	0.4679	-6.236	4.4263	2.2175	-1.9079	1.5134	8.28	1.6323	-4.0165	0.333	0.333	0.333	0.333	0.333	0.333	0.333	0.333	0.333	0.333	0.333	0.333	0.333	0.333	0.333	0.333	0.333	0.333	0.333	6.327	1.5493	3.6779	6	144	0.7547125362181	0	1
"145"	6	44	3	-2	-3.63	1	9	-1	1	2.936	-7.1931	9.6822	-3.1178	-4.6727	-11.6931	5.0014	-3.402	-3.6991	-2.8318	-4.7181	-7.8331	-12.8367	-5.6491	0.5399	-4.3503	-6.7364	-0.4838	-3.9761	-2.0183	-1.836	0.333	0.333	0.333	0.333	0.333	0.333	0.333	0.333	0.333	0.333	0.333	0.333	0.333	0.333	0.333	0.333	0.333	0.333	0.333	6.327	1.5212	4.4703	6	145	1.07704811075227	0	1
"146"	6	54	3	1	1.815	0	9	1	1	3.043	-2.4657	4.4006	6.0472	3.3671	9.1688	-1.0644	-10.4657	1.8065	0.9525	-0.6919	-1.0864	5.0412	-2.9446	-3.4214	8.5507	-2.4007	6.7186	8.027	1.5121	3.8503	0.2764	0.4637	0.3737	0.4051	0.2615	0.4475	0.4109	0.3296	0.2159	0.418	0.3065	0.2242	0.2768	0.3986	0.229	0.2792	0.3941	0.3381	0.2762	6.3251	1.562	4.6275	6	146	1.11284387091483	1	0
"147"	6	21	3	4	7.26	1	3	1	1	0.973	6.4407	4.5968	7.6908	6.0027	18.8876	11.5673	4.3946	5.8537	15.0922	0.0962	-1.162	12.9823	10.5312	3.6584	8.2588	9.4999	6.9799	3.5821	1.7235	9.5921	0.333	0.333	0.333	0.333	0.333	0.333	0.333	0.333	0.333	0.333	0.333	0.333	0.333	0.333	0.333	0.333	0.333	0.333	0.333	6.327	1.5181	2.507	6	147	-0.027371196796132	1	0
"148"	6	9	3	-2	-3.63	0	3	-1	1	0.829	-4.9276	-9.4942	-1.2708	-7.438	-7.2619	-1.6524	-11.3892	-10.6389	0.9332	-1.5171	-0.6483	6.1053	-7.6028	-5.1198	-3.3463	-2.3635	-7.842	-3.7536	6.2967	2.278	0.3007	0.3707	0.4818	0.42	0.2162	0.3463	0.2418	0.4334	0.2523	0.3609	0.2288	0.2636	0.4211	0.2522	0.4048	0.2757	0.4002	0.4254	0.2337	6.3297	1.4725	2.3128	6	148	-0.187535123846842	0	1
"149"	6	32	3	0	0	1	8	-1	1	2.51	0.5159	0.7366	-3.9994	6.006	-7.4609	7.1863	-9.5598	2.7903	2.2538	0.139	9.8997	-6.5991	6.2345	2.2514	-1.2256	-1.9885	2.4399	-3.2515	-2.9824	-1.571	0.333	0.333	0.333	0.333	0.333	0.333	0.333	0.333	0.333	0.333	0.333	0.333	0.333	0.333	0.333	0.333	0.333	0.333	0.333	6.327	1.4629	3.9777	6	149	0.920282753143692	0	1
"150"	6	36	3	-4	-7.26	0	4	-1	1	1.22	-10.6283	-5.504	-3.4895	0.4728	-13.4061	-0.733	-7.4894	-15.7267	-9.0705	-10.4665	-8.5971	-5.1388	-4.5989	-13.0448	-1.618	-5.8399	-11.216	-10.161	-12.2981	3.1151	0.3565	0.2628	0.3424	0.5268	0.3104	0.43	0.2495	0.2167	0.3126	0.2685	0.2315	0.2913	0.3791	0.3143	0.4057	0.206	0.3045	0.3908	0.5237	6.323	1.6941	2.9206	6	150	0.198850858745165	0	1
"151"	6	13	3	2	3.63	0	4	1	1	1.305	3.1737	6.7877	3.1609	12.1787	5.8176	3.0092	0.2031	0.8457	-3.4461	11.1753	-0.1512	0.8392	2.9423	6.5683	-0.0535	12.4114	8.198	6.4536	-0.1539	-6.5503	0.2846	0.3707	0.458	0.3215	0.2572	0.2941	0.3365	0.3876	0.2651	0.3287	0.367	0.4231	0.2142	0.4211	0.2066	0.4461	0.4789	0.2095	0.2544	6.325	1.7132	3.022	6	151	0.266203040774657	1	0
"152"	6	11	3	0	0	0	5	-1	1	1.471	-3.5412	4.3609	-1.6084	-3.8559	-0.6335	9.5632	6.7122	-1.0789	0.7363	-5.2322	1.577	1.2711	-3.6373	8.6619	-2.2284	0.1131	-11.7128	3.9391	-3.9506	1.4776	0.3485	0.2726	0.3188	0.2343	0.5124	0.2405	0.5287	0.2163	0.3134	0.2844	0.4896	0.4516	0.2126	0.3782	0.2502	0.3591	0.4146	0.2845	0.2164	6.3267	1.6803	3.1551	6	152	0.385942441619301	0	1
"153"	6	29	3	-4	-7.26	1	4	-1	1	1.149	-8.6078	-1.4927	-3.206	-7.9361	-1.4117	-9.6695	2.6435	-4.2677	-7.9398	-16.9311	-7.3891	-9.9838	-11.7422	-11.1063	-8.9005	-16.4187	-5.6512	-7.9884	0.5371	-7.6616	0.333	0.333	0.333	0.333	0.333	0.333	0.333	0.333	0.333	0.333	0.333	0.333	0.333	0.333	0.333	0.333	0.333	0.333	0.333	6.327	1.5677	2.7164	6	153	0.138891998866619	0	1
"154"	6	10	3	-1	-1.815	0	4	-1	1	1.053	-6.7026	-7.6306	-4.161	-6.1216	-9.1076	0.5344	-4.5035	-2.0652	5.8133	-9.5384	-2.2739	-1.0714	6.4188	-0.1639	2.8503	6.5255	-1.5274	-3.178	5.1005	-3.6364	0.256	0.3652	0.2064	0.3305	0.4539	0.3663	0.2641	0.3336	0.4174	0.2342	0.288	0.4348	0.2265	0.46	0.2366	0.4522	0.4952	0.2715	0.2381	6.3305	1.654	2.7207	6	154	0.0516432331518384	0	1
"155"	6	41	3	2	3.63	0	4	1	1	0.882	4.1369	5.8519	11.2948	-0.1931	11.308	-0.812	1.2695	-7.6564	4.7682	3.9289	10.5907	-0.5416	3.1309	3.4042	8.3968	5.6754	-3.2964	5.1523	6.7358	-0.9527	0.327	0.2745	0.2068	0.2498	0.3238	0.4528	0.3182	0.2435	0.4544	0.2186	0.4575	0.3831	0.2559	0.4589	0.4173	0.2332	0.5148	0.2875	0.2582	6.3359	1.7284	2.6161	6	155	-0.125563222975346	1	0
"156"	6	24	3	-1	-1.815	0	5	-1	1	1.249	-2.8608	-5.0008	8.67	0.1345	7.5109	-3.8599	-4.421	-6.1718	0.3754	-11.4241	-4.0095	3.6244	-6.8367	-1.0644	-3.6897	0.5193	-1.1322	3.8394	-6.4965	-5.1988	0.2051	0.3215	0.3571	0.3243	0.3953	0.3023	0.5062	0.301	0.4882	0.2074	0.294	0.2432	0.2796	0.4231	0.205	0.3707	0.4193	0.2696	0.4051	6.318	1.4648	2.7165	6	156	0.222343231143441	0	1
"157"	6	19	3	1	1.815	1	13	1	1	4.227	1.618	0.3869	1.8055	-6.4864	3.4674	0.5962	4.6128	-7.1534	2.2941	4.7629	3.673	3.9002	4.5285	-1.7723	17.1699	0.3343	-0.8949	-1.4781	5.1272	-0.3214	0.333	0.333	0.333	0.333	0.333	0.333	0.333	0.333	0.333	0.333	0.333	0.333	0.333	0.333	0.333	0.333	0.333	0.333	0.333	6.327	1.6369	5.8609	6	157	1.44149252158465	1	0
"158"	6	31	3	-1	-1.815	1	9	1	0	2.808	3.0882	2.7247	-1.6372	-1.0907	-8.6699	3.1357	-6.8165	7.051	3.6482	-14.3854	0.1051	-3.1423	-9.2219	-1.674	-1.9965	-2.7339	2.1406	-1.8702	-4.2943	-1.7471	0.333	0.333	0.333	0.333	0.333	0.333	0.333	0.333	0.333	0.333	0.333	0.333	0.333	0.333	0.333	0.333	0.333	0.333	0.333	6.327	1.5202	4.3422	6	158	1.03247248616356	1	0
"159"	6	20	3	2	3.63	1	4	1	1	1.197	1.3178	1.9114	8.1937	7.5339	-1.9832	4.2027	4.6066	0.0429	-2.946	5.4794	10.5211	-5.6597	6.32	-0.2118	11.0075	2.5721	4.8543	5.169	12.2233	-4.4546	0.333	0.333	0.333	0.333	0.333	0.333	0.333	0.333	0.333	0.333	0.333	0.333	0.333	0.333	0.333	0.333	0.333	0.333	0.333	6.327	1.5537	2.7642	6	159	0.179818426575836	1	0
"160"	6	1	3	-4	-7.26	1	5	-1	1	1.428	-7.1637	-2.4895	-8.918	-7.3888	-1.0619	-1.5305	-12.169	-5.2813	1.6861	-15.2759	-8.1186	-13.4187	-13.5809	0.6537	-7.8193	-7.4529	-4.2763	-13.1931	-6.72	-13.3926	0.333	0.333	0.333	0.333	0.333	0.333	0.333	0.333	0.333	0.333	0.333	0.333	0.333	0.333	0.333	0.333	0.333	0.333	0.333	6.327	1.4649	2.9126	6	160	0.356274863917393	0	1
"161"	6	23	3	-2	-3.63	0	9	-1	1	2.879	-0.2428	-7.4855	-3.2963	-7.6687	2.7633	-6.8991	-3.3757	-8.4354	-6.1141	-10.9532	0.2094	-9.1685	-8.1057	-1.5936	-0.8714	-2.7317	4.2435	4.3825	-11.0123	3.5275	0.3593	0.2136	0.4104	0.3358	0.4054	0.2053	0.362	0.512	0.2033	0.2861	0.5237	0.4914	0.2719	0.4601	0.2626	0.2069	0.3435	0.262	0.2046	6.3199	1.619	4.5131	6	161	1.05744301163004	0	1
"162"	6	33	3	1	1.815	1	6	1	1	1.925	2.3194	1.6466	-1.5687	-4.431	8.8655	-2.0438	5.2651	3.4821	2.3529	5.2969	0.3886	3.2198	11.1344	10.5762	1.0638	-1.3537	-4.2551	2.5818	-9.3103	-0.5818	0.333	0.333	0.333	0.333	0.333	0.333	0.333	0.333	0.333	0.333	0.333	0.333	0.333	0.333	0.333	0.333	0.333	0.333	0.333	6.327	1.4183	3.3592	6	162	0.654925967739748	1	0
"163"	6	52	3	-1	-1.815	0	6	1	0	1.944	-1.2307	4.1242	1.3971	2.1721	5.4278	2.6089	-5.6765	-3.131	6.4657	1.3521	-0.5574	-3.1597	-7.461	-8.9446	-10.8462	-4.7626	-3.613	3.0302	-6.7832	-5.8328	0.2549	0.4117	0.2092	0.4693	0.2284	0.4391	0.2976	0.4863	0.5155	0.2265	0.335	0.2623	0.2004	0.4244	0.4738	0.2834	0.3156	0.2895	0.2063	6.3288	1.7011	3.6618	6	163	0.664747706038247	1	0
"164"	6	70	3	4	7.26	0	3	1	1	0.7	12.168	5.1441	6.4278	17.9093	4.9614	0.2734	8.6953	12.0221	8.4151	-1.331	11.1026	7.2095	8.2963	8.5875	5.9429	2.3848	6.8889	12.7308	10.6115	-2.057	0.3903	0.2194	0.3738	0.2563	0.2289	0.3047	0.3905	0.3086	0.2721	0.2272	0.3797	0.3144	0.3447	0.4811	0.4287	0.3979	0.3176	0.2865	0.4063	6.3288	1.4185	2.1343	6	164	-0.356674943938732	1	0
"165"	6	34	3	2	3.63	1	4	1	1	1.254	-1.0108	6.2716	8.0073	-0.2765	-0.5026	7.5223	-7.2438	0.2217	6.2737	1.7208	4.6787	13.1598	9.0801	-1.078	4.5383	5.821	-2.0135	2.1717	9.8559	5.9597	0.333	0.333	0.333	0.333	0.333	0.333	0.333	0.333	0.333	0.333	0.333	0.333	0.333	0.333	0.333	0.333	0.333	0.333	0.333	6.327	1.6047	2.8718	6	165	0.226338442210729	1	0
"166"	6	65	3	-2	-3.63	0	6	-1	1	1.933	-5.0371	2.8559	-3.4799	-10.6223	-1.6718	2.6351	-7.6357	-8.086	-5.3466	-4.8078	-1.7955	-10.5048	4.2065	-11.8493	-1.9741	-1.2754	-4.4693	-8.6478	5.3405	0.5967	0.2343	0.3684	0.3062	0.4503	0.3324	0.2883	0.529	0.3228	0.2362	0.3271	0.268	0.2944	0.3353	0.4831	0.2026	0.3342	0.2959	0.4027	0.3071	6.3182	1.4832	3.4166	6	166	0.659073200226194	0	1
"167"	6	22	3	-4	-7.26	0	5	-1	1	1.102	-7.2421	-4.6905	-4.2168	-7.0712	-4.8455	2.1197	-2.2011	-4.5075	-0.1754	-9.5064	-11.1229	-10.3818	-5.9707	-10.188	-17.1413	-13.4891	-11.1836	-10.3595	-0.4334	-13.8804	0.3274	0.2274	0.2856	0.2516	0.4179	0.3054	0.3325	0.4397	0.2183	0.3288	0.2965	0.2513	0.4132	0.2771	0.4042	0.3131	0.4231	0.3239	0.4884	6.3255	1.6348	2.7361	6	167	0.0971267107307228	0	1
"168"	6	25	3	0	0	0	11	-1	0	3.385	-1.0278	-0.3151	1.8315	-3.2323	1.9568	3.7366	-6.3733	7.4072	-3.9197	-7.2254	-10.0409	2.7169	2.6918	0.4484	-2.0845	9.3686	-5.882	4.7452	0.9174	2.9146	0.3839	0.2094	0.3565	0.2069	0.2652	0.22	0.5104	0.2161	0.3362	0.2314	0.5107	0.2227	0.3032	0.4689	0.4142	0.3647	0.3183	0.4216	0.3743	6.3345	1.6518	5.0354	6	168	1.21935390636424	0	1
"169"	6	14	3	4	7.26	0	7	1	1	2.002	3.7479	-0.5808	7.3967	11.4106	-1.8205	7.2163	5.2789	7.9766	10.1629	18.1195	9.9058	3.4957	5.57	5.5652	11.3582	12.0103	1.0698	6.3972	16.0155	6.4716	0.3344	0.2445	0.2172	0.3869	0.3038	0.2026	0.4178	0.3828	0.2028	0.4288	0.2326	0.3385	0.5167	0.2938	0.4153	0.2686	0.3199	0.5211	0.3032	6.3313	1.4951	3.5028	6	169	0.694146680893029	1	0
"170"	6	69	3	2	3.63	0	14	1	1	4.942	3.3974	0.9319	9.6199	1.822	3.4506	6.046	-5.4164	-1.7718	4.0691	-5.5196	3.7413	4.218	3.5488	14.3707	-1.0375	3.8043	8.4841	7.8719	9.9049	1.6336	0.2371	0.2659	0.304	0.2019	0.4798	0.377	0.2935	0.4499	0.2221	0.4827	0.3632	0.3032	0.4686	0.4953	0.2455	0.3443	0.282	0.2431	0.2736	6.3326	1.7235	6.6595	6	170	1.59777010756642	1	0
"171"	6	47	3	1	1.815	1	9	1	1	2.887	4.5555	-1.8626	7.4048	-11.2038	1.7725	-2.6201	3.2728	2.1424	0.3673	4.1296	7.1965	-3.9773	4.6166	-0.5677	1.7932	-3.8451	9.3444	1.5134	4.8172	9.4299	0.333	0.333	0.333	0.333	0.333	0.333	0.333	0.333	0.333	0.333	0.333	0.333	0.333	0.333	0.333	0.333	0.333	0.333	0.333	6.327	1.5403	4.4381	6	171	1.0602179006808	1	0
"172"	6	56	3	4	7.26	0	4	1	1	1.01	9.937	10.6082	7.8807	16.3837	8.6997	4.5164	3.3483	-0.3662	8.3135	11.7822	9.8106	-1.0382	1.685	6.3197	15.9391	2.3927	13.1563	6.6962	7.8726	2.2633	0.4665	0.288	0.2322	0.3262	0.2212	0.326	0.2158	0.4571	0.5046	0.446	0.381	0.2208	0.3005	0.3535	0.4863	0.2	0.2685	0.3994	0.2296	6.3233	1.4356	2.4606	6	172	0.00995033085316809	1	0
"173"	6	27	3	2	3.63	0	3	1	1	1.199	8.2729	3.6444	6.289	-0.1742	6.1946	6.4886	6.7283	11.6151	5.4165	-0.5032	-0.4126	-5.1784	-7.7474	0.602	5.9918	11.1443	1.6709	0.4662	2.9375	7.3735	0.4004	0.4289	0.393	0.229	0.3132	0.2816	0.2388	0.447	0.3323	0.2699	0.4234	0.2568	0.2954	0.4002	0.4334	0.2043	0.3481	0.2918	0.33	6.3173	1.4784	2.683	6	173	0.181487876045377	1	0
"174"	6	39	3	0	0	0	6	1	0	1.82	4.9757	3.1505	-4.8905	5.002	-1.2959	8.7116	-8.5749	-1.4545	3.3129	-3.5672	-2.2762	2.6976	-8.0008	-1.4327	-0.4433	4.5131	-6.9168	7.6098	-3.1635	3.9165	0.2944	0.4199	0.2605	0.2268	0.2801	0.5076	0.2386	0.4461	0.3033	0.2637	0.4599	0.2917	0.247	0.519	0.2594	0.3559	0.2045	0.3917	0.3651	6.3352	1.7263	3.5543	6	174	0.598836501088704	1	0
"175"	6	45	3	-1	-1.815	1	11	-1	1	3.609	-3.8646	5.5872	3.546	-2.7986	-1.3553	0.6544	-6.3125	-1.5034	-8.8545	-4.0885	-3.2975	-3.5241	-3.3862	8.9202	2.1394	0.0259	2.7147	-12.0138	-0.8951	-6.9992	0.333	0.333	0.333	0.333	0.333	0.333	0.333	0.333	0.333	0.333	0.333	0.333	0.333	0.333	0.333	0.333	0.333	0.333	0.333	6.327	1.5941	5.2093	6	175	1.28343072566065	0	1
"176"	6	57	3	-4	-7.26	1	6	-1	1	1.762	-8.4141	-6.6306	-7.2965	-3.7225	-6.0985	-2.2195	-8.1862	-8.5745	-17.1495	-12.4767	-4.4124	-5.3135	-0.5729	-9.5935	-12.5711	5.7287	-11.3025	-3.8828	-11.6785	-9.8798	0.333	0.333	0.333	0.333	0.333	0.333	0.333	0.333	0.333	0.333	0.333	0.333	0.333	0.333	0.333	0.333	0.333	0.333	0.333	6.327	1.6572	3.4298	6	176	0.566449527513988	0	1
"177"	6	26	3	1	1.815	0	8	1	1	2.421	1.2192	3.1896	5.668	2.7367	6.2108	-3.7192	1.0631	-3.0573	8.6255	0.8831	13.2722	4.0716	0.1667	1.719	-3.0379	2.6425	1.0588	-6.2235	-6.5919	7.8008	0.2517	0.3258	0.5192	0.2434	0.3417	0.4632	0.2422	0.3035	0.2355	0.3827	0.3364	0.4038	0.2506	0.3551	0.5325	0.4012	0.3068	0.2019	0.2382	6.3354	1.662	4.0887	6	177	0.884180677955921	1	0
"178"	6	60	3	0	0	1	8	1	1	2.407	1.778	-1.3566	0.9443	3.9093	0.4675	-0.5042	-1.1495	-12.7058	0.5838	-6.1969	4.3548	2.6027	0.0277	-7.859	-4.3606	0.8145	11.0359	-0.0399	3.8456	2.7207	0.333	0.333	0.333	0.333	0.333	0.333	0.333	0.333	0.333	0.333	0.333	0.333	0.333	0.333	0.333	0.333	0.333	0.333	0.333	6.327	1.4725	3.8915	6	178	0.878381158800935	1	0
"179"	6	43	3	-4	-7.26	1	6	-1	1	1.767	-3.764	-10.5645	-1.9044	-1.5463	-18.8727	-7.9518	-6.4741	-11.7842	-7.9405	-1.1371	-7.2349	-10.2276	-6.2515	-2.8979	-1.1587	-9.38	-5.9649	-16.1093	-2.4018	-12.4947	0.333	0.333	0.333	0.333	0.333	0.333	0.333	0.333	0.333	0.333	0.333	0.333	0.333	0.333	0.333	0.333	0.333	0.333	0.333	6.327	1.4035	3.1847	6	179	0.569283193337559	0	1
"180"	6	8	3	-4	-7.26	0	5	-1	1	1.372	-9.2595	-4.9405	1.0682	-10.8467	-11.0159	-2.0157	-1.9286	-11.3979	-10.1436	-13.0405	-1.1887	-12.8731	-1.0114	-1.3216	-2.5949	-12.1175	-8.1442	-12.06	-7.3687	-14.4277	0.4005	0.2438	0.2749	0.3674	0.4972	0.2958	0.3325	0.2661	0.4852	0.2422	0.5152	0.2528	0.3484	0.4018	0.3263	0.3696	0.2521	0.2006	0.2621	6.3344	1.5787	2.9562	6	180	0.316269529303694	0	1
"181"	6	6	3	2	3.63	1	6	1	1	1.872	-0.3591	12.5271	2.1415	11.0332	1.3143	1.2192	0.1039	0.6484	-1.3583	7.9064	11.8771	10.6467	-3.7014	-0.4001	3.4324	4.9044	2.3651	8.4277	0.4079	-2.4972	0.333	0.333	0.333	0.333	0.333	0.333	0.333	0.333	0.333	0.333	0.333	0.333	0.333	0.333	0.333	0.333	0.333	0.333	0.333	6.327	1.6235	3.5061	6	181	0.6270073780554	1	0
"182"	6	30	3	-2	-3.63	1	6	-1	1	1.978	-5.1581	2.479	-5.3568	-6.3003	-7.4483	-7.5266	-4.3859	-7.4003	2.6567	-2.5183	10.4071	2.491	-7.5042	-6.8963	-4.9759	-6.0149	-8.1383	0.3352	-3.5251	-9.0687	0.333	0.333	0.333	0.333	0.333	0.333	0.333	0.333	0.333	0.333	0.333	0.333	0.333	0.333	0.333	0.333	0.333	0.333	0.333	6.327	1.5467	3.529	6	182	0.68208623320052	0	1
"183"	6	37	3	-2	-3.63	0	6	-1	1	1.502	-1.4949	1.2955	-9.6584	-2.4752	-3.8164	-7.5687	-5.8564	3.2101	-1.5766	-12.4276	-8.7823	-2.8614	-10.0364	4.7961	-1.1639	6.1209	-7.0919	-3.7136	-7.1964	-4.1931	0.2988	0.2081	0.3096	0.2732	0.3202	0.4104	0.2889	0.4822	0.2646	0.2102	0.2389	0.2708	0.3204	0.4517	0.5278	0.3426	0.38	0.3437	0.3828	6.325	1.6917	3.1857	6	183	0.406797553341943	0	1
"184"	6	55	3	2	3.63	0	8	1	1	2.48	-1.3505	7.4854	-0.2773	1.6362	-4.2897	4.2808	2.9755	6.6302	-5.5752	12.3121	5.2836	4.3945	2.3904	1.5576	16.4114	6.5163	3.9187	1.0249	3.5824	4.4176	0.3648	0.2003	0.2945	0.2243	0.3619	0.4814	0.2399	0.328	0.4008	0.3654	0.2222	0.4255	0.3718	0.2653	0.2063	0.4187	0.5177	0.4076	0.2222	6.3186	1.7194	4.2138	6	184	0.908258560176891	1	0
"185"	6	40	3	1	1.815	0	13	1	1	3.865	1.8375	5.0198	1.8788	-5.762	-2.5128	5.3976	1.4117	10.1999	0.2371	3.5859	-2.6483	3.0268	0.6048	0.0066	-0.4968	10.6843	8.543	-3.1349	-8.0854	6.2012	0.5117	0.2192	0.3136	0.2027	0.228	0.411	0.2636	0.3629	0.2641	0.3008	0.3825	0.3188	0.3558	0.3986	0.5057	0.3176	0.281	0.2559	0.4248	6.3181	1.5839	5.4659	6	185	1.35196168203939	1	0
"186"	6	4	3	0	0	1	20	1	0	7.475	1.51	-7.8406	-0.5474	2.0151	8.6394	-3.8377	0.0323	0.1784	0.1718	-11.5289	0.5842	3.89	5.1126	0.112	8.7458	1.0086	0.9885	-3.6426	-6.7885	1.6139	0.333	0.333	0.333	0.333	0.333	0.333	0.333	0.333	0.333	0.333	0.333	0.333	0.333	0.333	0.333	0.333	0.333	0.333	0.333	6.327	1.4501	8.9427	6	186	2.01156411927675	1	0
"187"	6	50	3	-4	-7.26	0	5	-1	1	1.424	-7.6421	-12.8354	-3.1718	-10.2571	-13.657	-2.5776	-6.6756	-6.2532	-10.1933	-7.291	-2.2408	-3.3274	-15.3486	-6.0655	-15.2324	-6.6557	3.8349	-12.5234	-4.1284	-3.1091	0.4717	0.2131	0.2905	0.403	0.2757	0.3509	0.2325	0.3292	0.2175	0.5237	0.2606	0.344	0.5305	0.2487	0.4906	0.2304	0.3626	0.2284	0.3332	6.3368	1.5597	2.9909	6	187	0.353469812989784	0	1
"188"	6	68	3	1	1.815	0	8	1	1	2.489	-2.7396	1.8352	4.5486	0.1669	-2.7923	8.5121	6.5888	3.8096	-4.5596	9.708	2.6248	-2.9844	-2.5584	3.3689	5.9992	2.6651	-2.2783	-2.816	12.1636	-5.172	0.2561	0.4438	0.2323	0.517	0.36	0.3983	0.2266	0.3222	0.4706	0.3159	0.2265	0.2836	0.4713	0.2215	0.4408	0.2946	0.2488	0.2231	0.3737	6.3269	1.439	3.9394	6	188	0.911881023385455	1	0
"189"	6	16	3	-2	-3.63	1	5	-1	1	1.424	-8.502	-8.7699	-3.6099	3.0406	-6.3438	-7.5768	-2.918	-3.9691	4.362	0.1115	-2.3123	0.8432	-11.0078	-4.8106	-0.2549	4.5835	-6.0312	-12.5069	1.0904	-7.01	0.333	0.333	0.333	0.333	0.333	0.333	0.333	0.333	0.333	0.333	0.333	0.333	0.333	0.333	0.333	0.333	0.333	0.333	0.333	6.327	1.6417	3.0745	6	189	0.353469812989784	0	1
"190"	6	66	3	-1	-1.815	0	5	-1	1	1.324	-1.0741	2.3518	-10.2361	6.5558	-0.0609	-2.5366	-5.4949	-0.9818	-11.5829	-0.4102	-9.2307	1.5454	6.5417	2.2467	-5.24	-6.9631	1.9551	1.229	-0.755	-3.9334	0.3479	0.2144	0.3749	0.3362	0.2507	0.5131	0.2279	0.368	0.2197	0.3627	0.4708	0.4993	0.2541	0.2892	0.4681	0.2464	0.2158	0.2574	0.4135	6.3301	1.6279	2.9584	6	190	0.280657457514817	0	1
"191"	6	48	3	2	3.63	1	8	1	1	2.56	5.9455	-4.036	6.6543	3.3796	6.2199	0.4487	6.3074	-1.0014	-0.1373	0.5903	12.0855	-5.1508	8.505	4.6212	7.4216	1.0159	6.6373	13.7364	1.4109	-1.282	0.333	0.333	0.333	0.333	0.333	0.333	0.333	0.333	0.333	0.333	0.333	0.333	0.333	0.333	0.333	0.333	0.333	0.333	0.333	6.327	1.6098	4.1773	6	191	0.940007258491471	1	0
"192"	6	15	3	-4	-7.26	1	6	-1	1	1.689	-3.5076	-10.3483	-7.7931	1.6193	-8.2446	-15.4453	-2.8427	-1.5545	-13.9065	-5.7986	-4.8084	-5.8649	-8.5437	-10.2171	-4.8301	-19.0619	-3.141	-1.4808	-9.6676	-8.8531	0.333	0.333	0.333	0.333	0.333	0.333	0.333	0.333	0.333	0.333	0.333	0.333	0.333	0.333	0.333	0.333	0.333	0.333	0.333	6.327	1.6976	3.3903	6	192	0.524136637825663	0	1
"193"	6	61	3	1	1.815	1	11	1	1	3.459	3.2522	7.9876	-1.9881	1.6179	0.9819	-1.0698	-3.8234	-0.3433	4.0208	6.7886	-3.006	-7.1534	-3.8537	9.8715	4.1974	0.2769	-3.6322	2.4125	9.7423	9.5455	0.333	0.333	0.333	0.333	0.333	0.333	0.333	0.333	0.333	0.333	0.333	0.333	0.333	0.333	0.333	0.333	0.333	0.333	0.333	6.327	1.6198	5.0767	6	193	1.24097952995503	1	0
"194"	6	59	3	-1	-1.815	1	8	-1	1	2.38	0.6879	-4.4331	0.603	-8.6537	0.3218	-2.8733	-8.3288	0.5137	-7.8956	7.4629	2.6307	-3.0235	-1.9073	-6.1716	4.4373	-5.6176	-10.9044	3.3633	4.0123	-2.1911	0.333	0.333	0.333	0.333	0.333	0.333	0.333	0.333	0.333	0.333	0.333	0.333	0.333	0.333	0.333	0.333	0.333	0.333	0.333	6.327	1.5165	3.8974	6	194	0.867100487683383	0	1
"195"	6	12	3	1	1.815	0	12	1	1	3.927	-2.8401	-4.5956	-2.1949	2.4424	0.3364	3.3204	10.6434	5.643	8.4043	6.3818	-3.4722	-7.0009	3.9104	2.118	7.9079	-3.1336	-0.4314	9.6244	1.0754	-1.1659	0.3105	0.2605	0.3506	0.4752	0.5132	0.2411	0.3105	0.3429	0.2719	0.2327	0.3579	0.2742	0.3769	0.2155	0.2479	0.4487	0.5273	0.3431	0.2309	6.3314	1.7229	5.6615	6	195	1.36787577559587	1	0
"196"	6	63	3	4	7.26	1	6	1	1	1.981	7.8936	6.4447	12.4835	8.0714	7.556	4.9352	-0.2447	-0.4824	2.3475	7.5746	9.6545	13.738	14.2934	2.1598	12.2018	14.648	7.1446	6.8345	8.8678	-2.8054	0.333	0.333	0.333	0.333	0.333	0.333	0.333	0.333	0.333	0.333	0.333	0.333	0.333	0.333	0.333	0.333	0.333	0.333	0.333	6.327	1.431	3.4319	6	196	0.683601767716414	1	0
"197"	6	58	3	-2	-3.63	1	4	-1	1	1.051	-2.2673	-5.9013	-3.9013	-3.8424	-13.0545	-2.8251	-4.8908	0.5233	1.0372	-10.944	-2.3201	2.4882	1.1284	0.2662	-12.0477	1.216	-12.858	-5.4833	0.2669	0.6735	0.333	0.333	0.333	0.333	0.333	0.333	0.333	0.333	0.333	0.333	0.333	0.333	0.333	0.333	0.333	0.333	0.333	0.333	0.333	6.327	1.6873	2.752	6	197	0.049742091894814	0	1
"198"	6	46	3	0	0	1	8	1	0	2.664	1.9655	2.8469	-4.0111	1.9952	-4.0106	4.6987	7.3204	1.6762	-4.1049	-1.9705	-5.905	-3.6115	0.9732	5.7698	6.124	5.2077	6.0205	-8.1351	-4.9597	-7.1553	0.333	0.333	0.333	0.333	0.333	0.333	0.333	0.333	0.333	0.333	0.333	0.333	0.333	0.333	0.333	0.333	0.333	0.333	0.333	6.327	1.4312	4.1148	6	198	0.979828752678143	1	0
"199"	6	3	3	-1	-1.815	1	4	-1	1	1.207	-2.2697	-8.1018	-1.8947	-5.4714	-4.0658	0.7038	-11.8093	-8.4204	-0.6341	3.1381	-5.1907	-6.1461	-2.3385	8.2588	1.1705	2.6229	-2.4557	-0.5881	5.3631	1.4291	0.333	0.333	0.333	0.333	0.333	0.333	0.333	0.333	0.333	0.333	0.333	0.333	0.333	0.333	0.333	0.333	0.333	0.333	0.333	6.327	1.4092	2.6242	6	199	0.188137942115395	0	1
"200"	6	49	3	4	7.26	1	3	1	1	0.99	7.9899	-1.8183	14.2127	8.3857	13.2923	5.6023	5.6368	13.8855	10.1966	9.239	5.0196	6.3239	3.8719	-1.4723	5.7769	10.5564	1.7125	12.9358	0.637	12.6363	0.333	0.333	0.333	0.333	0.333	0.333	0.333	0.333	0.333	0.333	0.333	0.333	0.333	0.333	0.333	0.333	0.333	0.333	0.333	6.327	1.4318	2.4243	6	200	-0.0100503358535015	1	0
"201"	6	51	3	-2	-3.63	0	3	-1	1	0.936	-4.7713	-6.5057	-8.9787	1.8214	-14.272	-8.9971	-0.0532	-1.9902	-4.8946	-2.6896	0.9477	-0.6173	-9.6958	0.8572	-5.5867	-4.6442	5.4034	-6.3604	-6.0422	4.4044	0.5022	0.2942	0.2166	0.3206	0.3654	0.2123	0.3977	0.3169	0.2785	0.4246	0.4896	0.218	0.2692	0.2275	0.2526	0.516	0.475	0.2933	0.2545	6.3246	1.5342	2.4864	6	201	-0.0661398025045449	0	1
"202"	6	64	3	-4	-7.26	0	3	-1	1	0.812	-10.6494	-3.2452	-8.0963	-4.1221	-6.8333	-7.3727	-12.1359	-7.3236	-3.2939	2.2314	-3.2671	-8.991	-11.4537	-10.4149	-1.6794	-2.9313	-20.9385	-6.4157	-7.3036	-10.2787	0.2027	0.3184	0.4179	0.2443	0.4632	0.2617	0.3889	0.2211	0.2823	0.2079	0.2625	0.216	0.3712	0.4879	0.211	0.4346	0.5215	0.4958	0.3192	6.328	1.4634	2.279	6	202	-0.208254938820459	0	1
"203"	6	53	3	0	0	0	3	1	1	0.792	1.2644	3.9973	6.5061	-0.6507	-9.8472	-2.0018	-1.5327	-0.5975	-8.4671	4.5743	0.292	-0.5496	-1.9739	10.7259	5.5305	2.8802	-1.983	0.354	-6.282	-2.2828	0.3453	0.2044	0.4572	0.3328	0.5018	0.2402	0.3171	0.2515	0.406	0.2091	0.3056	0.3981	0.2225	0.3799	0.2301	0.414	0.4681	0.228	0.4093	6.3211	1.6486	2.4425	6	203	-0.233193887167711	1	0
"204"	6	38	3	-1	-1.815	0	5	-1	1	1.2	-2.1604	-6.3226	-3.7555	-9.3982	-11.922	-7.0708	-0.1907	3.1588	7.2623	-0.6245	-4.1191	1.3494	-2.0402	-7.1046	0.6349	-4.012	5.6357	-0.6055	5.2797	1.0806	0.2042	0.3407	0.2229	0.2875	0.3758	0.2664	0.3843	0.3374	0.4207	0.325	0.4724	0.507	0.346	0.2616	0.3431	0.2072	0.4179	0.2712	0.3298	6.3209	1.509	2.7177	6	204	0.182321556793955	0	1
"205"	6	67	3	0	0	0	12	1	0	3.842	-2.5484	-0.4349	-3.1768	-2.0458	-0.7758	7.3083	-6.1285	1.6617	-2.2	-0.195	2.5394	-8.1191	-3.1088	0.8765	10.2988	10.5087	-0.8625	0.9717	-6.2137	1.0651	0.2579	0.2317	0.3942	0.3565	0.516	0.4487	0.2471	0.2148	0.3412	0.4557	0.2051	0.3109	0.362	0.2814	0.3478	0.3749	0.3433	0.282	0.3461	6.3173	1.5869	5.426	6	205	1.34599306434636	1	0
"206"	6	62	3	2	3.63	1	4	1	1	1.034	7.0098	-0.702	10.4343	4.0818	10.6155	12.521	2.3997	-0.0636	12.5355	-4.9979	-1.9435	0.615	4.4125	-0.307	4.748	1.8799	-0.4896	1.1994	2.6419	7.1462	0.333	0.333	0.333	0.333	0.333	0.333	0.333	0.333	0.333	0.333	0.333	0.333	0.333	0.333	0.333	0.333	0.333	0.333	0.333	6.327	1.5991	2.6347	6	206	0.0334347760862374	1	0
"207"	6	5	3	1	1.815	1	11	1	1	3.507	-0.0419	1.6229	-1.9461	-0.678	16.9407	-6.8133	-3.1373	0.8049	-1.6446	6.4182	4.239	-0.964	1.8849	-3.1405	6.3142	3.0628	4.9	0.8856	0.1029	6.6732	0.333	0.333	0.333	0.333	0.333	0.333	0.333	0.333	0.333	0.333	0.333	0.333	0.333	0.333	0.333	0.333	0.333	0.333	0.333	6.327	1.4109	4.9247	6	207	1.25476097115804	1	0
"208"	6	28	3	4	7.26	0	4	1	1	0.922	5.5855	6.9533	8.3233	11.765	9.2786	-1.5263	0.5544	4.7141	11.1268	16.0506	13.158	10.0417	10.9935	7.8399	3.8688	9.0468	9.1993	0.9281	-3.1433	9.5545	0.3041	0.3513	0.2076	0.4389	0.2948	0.3891	0.3502	0.4064	0.2375	0.3058	0.4552	0.2834	0.4493	0.3813	0.269	0.2941	0.2577	0.3618	0.2877	6.3252	1.6136	2.5562	6	208	-0.0812100554255432	1	0
"209"	6	7	3	4	7.26	1	2	1	1	0.65	9.6642	9.2067	0.9614	5.2832	7.1093	4.4685	4.3909	-3.7309	4.7836	8.5026	2.1334	12.0957	12.657	14.128	11.2446	1.2581	4.5976	7.4308	15.2602	13.6403	0.333	0.333	0.333	0.333	0.333	0.333	0.333	0.333	0.333	0.333	0.333	0.333	0.333	0.333	0.333	0.333	0.333	0.333	0.333	6.327	1.549	2.2171	6	209	-0.430782916092454	1	0
"210"	6	35	3	4	7.26	1	5	1	1	1.548	5.1427	6.5563	4.5758	4.6011	15.1178	6.9766	2.6192	12.1748	7.1098	-0.7669	7.1517	0.4151	14.5243	5.3361	4.1156	-0.1385	11.7833	14.4057	7.6127	14.2201	0.333	0.333	0.333	0.333	0.333	0.333	0.333	0.333	0.333	0.333	0.333	0.333	0.333	0.333	0.333	0.333	0.333	0.333	0.333	6.327	1.553	3.1158	6	210	0.436963775167535	1	0
"211"	6	30	4	-2	-3.63	1	5	-1	1	1.418	-4.1589	-2.2537	-0.0137	-5.3719	0.6857	-5.689	-7.8884	-5.1364	-11.391	0.2213	4.1094	-6.2575	-0.6099	-9.3463	-15.7954	0.2367	-1.311	-7.1624	2.9812	0.549	0.333	0.333	0.333	0.333	0.333	0.333	0.333	0.333	0.333	0.333	0.333	0.333	0.333	0.333	0.333	0.333	0.333	0.333	0.333	6.327	1.5516	2.9685	6	211	0.349247428109936	0	1
"212"	6	61	4	1	1.815	1	3	1	1	0.854	2.8597	7.3519	0.2255	6.1203	-5.191	5.9483	-3.2166	-0.9312	11.5126	7.2416	-5.8348	2.0953	4.727	1.705	-5.688	-1.5683	6.4162	3.8775	-4.4384	2.6781	0.333	0.333	0.333	0.333	0.333	0.333	0.333	0.333	0.333	0.333	0.333	0.333	0.333	0.333	0.333	0.333	0.333	0.333	0.333	6.327	1.6033	2.4711	6	212	-0.157824085193567	1	0
"213"	6	2	4	-2	-3.63	1	5	-1	1	1.468	0.0969	-2.4991	-5.8742	-1.8929	-2.3428	-6.3409	-7.2727	-13.9492	-10.6895	5.7816	-5.8148	-4.0309	-0.6398	1.6707	-7.5891	-1.5351	7.2668	-5.9573	-5.6921	-3.806	0.333	0.333	0.333	0.333	0.333	0.333	0.333	0.333	0.333	0.333	0.333	0.333	0.333	0.333	0.333	0.333	0.333	0.333	0.333	6.327	1.5227	3.0025	6	213	0.383900930192324	0	1
"214"	6	55	4	2	3.63	0	5	1	1	1.801	7.7194	-6.9824	2.4831	1.1042	6.8924	12.9632	6.8318	2.6746	0.808	-9.0505	6.9467	4.8937	2.2268	0.6458	5.3917	6.8847	6.1826	5.9889	2.8698	4.7562	0.3793	0.3294	0.4317	0.4779	0.2592	0.2079	0.3692	0.4791	0.4327	0.2423	0.4251	0.213	0.2394	0.2111	0.2492	0.4368	0.3202	0.2101	0.4139	6.3276	1.4938	3.3013	6	214	0.588342066193819	1	0
"215"	6	36	4	-4	-7.26	0	3	-1	1	0.737	-8.0454	-9.5776	3.6243	-13.1292	-11.8195	-8.772	-0.6708	-12.0834	-6.7996	2.1783	-10.2546	-8.4739	-0.5761	-4.8932	-5.2512	-11.4195	-4.9376	-11.6435	-11.9202	-10.3806	0.3962	0.2316	0.4805	0.5111	0.3646	0.2041	0.4711	0.2038	0.3384	0.2567	0.2002	0.3878	0.2405	0.3088	0.3934	0.2845	0.4855	0.2566	0.3141	6.3295	1.5094	2.2543	6	215	-0.3051673867928	0	1
"216"	6	26	4	1	1.815	0	6	1	1	1.693	4.6045	-2.3746	-3.0988	2.9112	10.18	2.5055	6.27	-3.1484	-3.163	5.6683	2.6887	8.9017	1.1265	-5.0279	6.7686	-4.2424	0.8178	7.7775	-6.1055	4.6017	0.2755	0.3795	0.2129	0.3198	0.4244	0.2296	0.3704	0.2245	0.3768	0.2605	0.4719	0.225	0.3177	0.2781	0.4858	0.3313	0.3656	0.4338	0.3425	6.3256	1.4156	3.1107	6	216	0.526502103150998	1	0
"217"	6	6	4	2	3.63	1	3	1	1	0.887	2.8678	11.7511	9.5857	2.1721	-0.3294	3.2882	8.2597	-5.1904	7.9704	4.1029	-5.3844	0.0986	-0.0719	4.7811	7.9137	12.2248	5.6562	-0.2547	5.6452	-1.8394	0.333	0.333	0.333	0.333	0.333	0.333	0.333	0.333	0.333	0.333	0.333	0.333	0.333	0.333	0.333	0.333	0.333	0.333	0.333	6.327	1.4352	2.3214	6	217	-0.119910296672558	1	0
"218"	6	35	4	4	7.26	1	4	1	1	1.02	10.1198	4.4839	15.0603	2.4513	0.9274	4.2176	11.8093	6.6851	7.134	6.834	15.6327	10.2342	10.6637	-1.6415	11.0871	10.6811	-1.7414	10.8527	3.0802	6.9481	0.333	0.333	0.333	0.333	0.333	0.333	0.333	0.333	0.333	0.333	0.333	0.333	0.333	0.333	0.333	0.333	0.333	0.333	0.333	6.327	1.4459	2.4873	6	218	0.0198026272961797	1	0
"219"	6	17	4	-1	-1.815	1	15	-1	1	4.859	1.5281	-6.7664	1.2303	10.5313	-9.1899	-2.7108	4.3262	-3.8064	-2.4135	4.6232	3.7641	-5.0826	-8.1099	-5.3144	-4.4615	-3.1176	-0.6136	-3.1567	0.3575	-8.1866	0.333	0.333	0.333	0.333	0.333	0.333	0.333	0.333	0.333	0.333	0.333	0.333	0.333	0.333	0.333	0.333	0.333	0.333	0.333	6.327	1.5064	6.3766	6	219	1.58083265542377	0	1
"220"	6	49	4	4	7.26	1	5	1	1	1.435	7.754	17.5838	0.6151	10.752	9.5142	-1.3789	3.1516	0.1304	3.637	4.7364	13.7971	8.4692	12.1131	11.7028	1.3403	7.8693	7.5846	5.0129	12.9924	5.852	0.333	0.333	0.333	0.333	0.333	0.333	0.333	0.333	0.333	0.333	0.333	0.333	0.333	0.333	0.333	0.333	0.333	0.333	0.333	6.327	1.5299	2.9855	6	220	0.361164849211584	1	0
"221"	6	29	4	-4	-7.26	1	5	-1	1	1.572	-9.393	-2.0452	-3.8013	-5.2887	-8.5527	-9.7864	-4.0782	-1.2698	-8.2702	-2.7875	-2.1726	-16.3585	-10.0858	-3.1548	-14.425	-1.4004	-11.9889	-2.6092	-10.0374	-15.9614	0.333	0.333	0.333	0.333	0.333	0.333	0.333	0.333	0.333	0.333	0.333	0.333	0.333	0.333	0.333	0.333	0.333	0.333	0.333	6.327	1.4515	3.0398	6	221	0.452348694007015	0	1
"222"	6	66	4	-1	-1.815	0	5	-1	1	1.609	-4.4052	-3.9709	-0.9246	-7.1026	1.3466	8.1595	3.8812	-5.4106	-5.4646	-9.7575	3.505	-4.8831	-8.5781	1.2477	-2.1038	6.6009	-2.4303	-2.8973	-5.3654	2.315	0.2371	0.3984	0.247	0.4975	0.2908	0.2062	0.2661	0.3601	0.2883	0.3808	0.4509	0.259	0.421	0.2802	0.3596	0.4607	0.2762	0.2473	0.4017	6.329	1.7154	3.3428	6	222	0.475612868010246	0	1
"223"	6	60	4	0	0	1	15	1	0	4.738	-1.1818	6.3706	-4.2989	2.1818	2.7546	-3.911	0.9376	-0.3506	-14.7692	1.2676	3.1987	-6.8659	-0.5771	4.6185	-2.838	6.6918	-1.3378	4.6783	3.6896	1.0417	0.333	0.333	0.333	0.333	0.333	0.333	0.333	0.333	0.333	0.333	0.333	0.333	0.333	0.333	0.333	0.333	0.333	0.333	0.333	6.327	1.4882	6.2393	6	223	1.55561510573659	1	0
"224"	6	54	4	1	1.815	0	8	-1	0	2.616	1.4305	-0.7402	-1.1307	-0.8526	0.066	-6.2268	-1.2115	-5.1786	7.8526	-1.3675	-3.7514	6.0305	10.3826	12.185	7.2889	5.2804	3.306	5.1524	-1.5327	0.8238	0.3211	0.5132	0.2907	0.2248	0.361	0.3133	0.3832	0.2322	0.4603	0.3383	0.3967	0.301	0.3354	0.2471	0.4141	0.2899	0.3425	0.2128	0.3407	6.3183	1.6578	4.2835	6	224	0.961646433594952	0	1
"225"	6	51	4	-2	-3.63	0	6	-1	1	1.746	0.6781	-13.1925	-1.7769	-4.6844	-11.4673	-0.2228	-1.3031	-8.8273	0.63	-1.9767	-5.5268	0.2598	-5.3911	-2.0092	-11.5048	2.8429	-1.8285	-0.0516	-10.3725	3.7005	0.4682	0.2025	0.3675	0.2858	0.3359	0.3667	0.2713	0.4421	0.2315	0.3005	0.4961	0.327	0.2236	0.3486	0.3136	0.4699	0.3502	0.2531	0.281	6.3352	1.4166	3.163	6	225	0.55732745741741	0	1
"226"	6	50	4	-4	-7.26	0	4	-1	1	0.89	-7.6157	2.6289	-8.9084	-4.4963	-5.7853	-12.296	-14.0829	-5.6199	-8.9575	3.6091	-8.7906	-10.8872	-0.9183	-5.6795	-3.2325	-7.5942	-11.0878	-8.4393	-14.158	-11.2576	0.3435	0.2355	0.2841	0.4142	0.2612	0.2309	0.4874	0.3721	0.219	0.2682	0.3455	0.4733	0.3791	0.2767	0.5269	0.2533	0.3256	0.298	0.333	6.3274	1.4271	2.3236	6	226	-0.116533816255952	0	1
"227"	6	59	4	-1	-1.815	1	7	-1	1	2.189	1.7952	1.5035	-4.3848	3.7248	-6.357	-6.6654	2.8003	-3.5058	-0.7299	-5.2473	-13.8199	-6.9626	0.5779	-0.8824	1.5459	-3.2603	-5.6626	2.2616	7.8015	-1.0889	0.333	0.333	0.333	0.333	0.333	0.333	0.333	0.333	0.333	0.333	0.333	0.333	0.333	0.333	0.333	0.333	0.333	0.333	0.333	6.327	1.5185	3.7067	6	227	0.783444818540726	0	1
"228"	6	63	4	4	7.26	1	4	1	1	1.223	4.4278	2.2366	5.3357	6.8934	10.494	1.3115	14.5036	-6.1054	3.4597	7.7847	15.2971	11.1734	11.5917	5.3322	7.2805	5.3165	12.3118	7.4594	8.6482	10.8545	0.333	0.333	0.333	0.333	0.333	0.333	0.333	0.333	0.333	0.333	0.333	0.333	0.333	0.333	0.333	0.333	0.333	0.333	0.333	6.327	1.5043	2.7237	6	228	0.201306856705035	1	0
"229"	6	8	4	-4	-7.26	0	3	-1	1	0.889	-10.5717	-13.2312	-6.6352	-0.9632	-3.1877	-4.7597	-7.1014	-4.8326	-4.2792	4.2076	-13.4376	-3.3633	-8.9057	-7.8969	-4.7417	-17.3384	-12.3702	-6.9591	-10.6269	-8.3161	0.3991	0.2903	0.3642	0.2468	0.3795	0.2093	0.3132	0.3528	0.3917	0.3498	0.2791	0.2497	0.2781	0.3166	0.3861	0.5283	0.2038	0.4894	0.2986	6.3265	1.6763	2.5732	6	229	-0.117658043468232	0	1
"230"	6	62	4	2	3.63	1	6	1	1	1.73	2.1237	-1.4284	-2.4612	8.7042	3.1166	0.9349	-2.151	8.2187	4.6491	3.9448	7.4226	8.3713	3.6926	-0.3273	1.3613	-6.8874	6.9782	9.8851	2.7935	13.4408	0.333	0.333	0.333	0.333	0.333	0.333	0.333	0.333	0.333	0.333	0.333	0.333	0.333	0.333	0.333	0.333	0.333	0.333	0.333	6.327	1.4271	3.1641	6	230	0.548121408509688	1	0
"231"	6	3	4	-1	-1.815	1	11	-1	1	3.453	1.7781	-14.0085	-3.7711	-5.9379	7.1362	2.6593	3.9753	-1.4755	-3.364	-5.3124	-0.143	4.1618	2.229	-6.4146	-0.6725	-0.3341	-7.2668	-1.5753	-8.075	-0.4791	0.333	0.333	0.333	0.333	0.333	0.333	0.333	0.333	0.333	0.333	0.333	0.333	0.333	0.333	0.333	0.333	0.333	0.333	0.333	6.327	1.5951	5.0705	6	231	1.23924341840786	0	1
"232"	6	46	4	0	0	1	5	-1	0	1.478	-3.4371	3.5722	-7.1789	-6.2423	7.7856	-1.3212	-1.8271	1.8948	-7.4598	3.4134	6.7654	1.3906	5.471	-0.2505	0.1116	8.1379	-5.2232	-6.5231	0.4544	2.079	0.333	0.333	0.333	0.333	0.333	0.333	0.333	0.333	0.333	0.333	0.333	0.333	0.333	0.333	0.333	0.333	0.333	0.333	0.333	6.327	1.5687	3.0624	6	232	0.39068982252601	0	1
"233"	6	4	4	0	0	1	10	1	1	3.138	-3.5209	5.6051	1.8137	-3.3255	0.5138	-1.0145	11.7895	4.3499	1.7112	0.7959	-2.2894	-1.4602	-1.5222	-10.1299	5.1982	-0.6843	0.7436	4.1666	-7.3564	-4.9371	0.333	0.333	0.333	0.333	0.333	0.333	0.333	0.333	0.333	0.333	0.333	0.333	0.333	0.333	0.333	0.333	0.333	0.333	0.333	6.327	1.4482	4.6054	6	233	1.14358565431084	1	0
"234"	6	18	4	0	0	1	14	-1	1	4.486	2.7367	-1.2681	0.387	0.8209	4.075	3.7977	0.143	-1.6969	-0.0874	-5.39	11.0862	6.1843	-1.1347	-5.5734	-0.6673	1.5137	-2.2333	-13.4834	-2.228	4.2549	0.333	0.333	0.333	0.333	0.333	0.333	0.333	0.333	0.333	0.333	0.333	0.333	0.333	0.333	0.333	0.333	0.333	0.333	0.333	6.327	1.5701	6.0703	6	234	1.50096143609802	0	1
"235"	6	53	4	0	0	0	20	-1	1	7.084	-3.9674	11.8385	2.9361	3.1653	-0.6133	-4.2922	-6.6452	9.6628	-6.1266	-2.3496	-0.5858	0.2099	-1.1558	-1.0219	-0.4268	3.2	-3.043	4.1712	2.9082	-5.8832	0.4815	0.3299	0.2981	0.4242	0.2252	0.2941	0.3718	0.2627	0.3381	0.2724	0.4135	0.2072	0.4365	0.3847	0.2585	0.2888	0.2547	0.3663	0.4163	6.3246	1.4253	8.5176	6	235	1.95783871992059	0	1
"236"	6	48	4	2	3.63	1	11	1	1	3.491	1.8571	-1.9742	8.4408	-0.0453	-0.9958	7.4603	4.4874	-1.8286	1.4766	9.606	1.595	8.9469	12.2512	-1.7039	0.562	1.3999	14.1938	5.574	2.6486	-0.3206	0.333	0.333	0.333	0.333	0.333	0.333	0.333	0.333	0.333	0.333	0.333	0.333	0.333	0.333	0.333	0.333	0.333	0.333	0.333	6.327	1.5539	5.0585	6	236	1.2501882281229	1	0
"237"	6	15	4	-4	-7.26	1	8	-1	1	2.335	-11.1488	-16.0032	1.5655	-4.1318	-6.8164	-2.4493	-13.0231	-8.1712	-9.8792	-5.3773	-5.9717	-2.702	-6.3121	-13.4303	-10.3667	-4.1007	-0.8288	-15.163	-2.0616	-10.4038	0.333	0.333	0.333	0.333	0.333	0.333	0.333	0.333	0.333	0.333	0.333	0.333	0.333	0.333	0.333	0.333	0.333	0.333	0.333	6.327	1.6298	3.9687	6	237	0.848011891120861	0	1
"238"	6	64	4	-4	-7.26	0	4	-1	1	1.279	-5.3035	-9.0582	-13.8574	-9.4559	-12.0034	-9.9877	-6.5065	-0.9295	-6.7228	-8.2339	-4.7362	-12.5803	-2.2963	-7.2667	-9.9813	-8.1904	0.2504	-8.5348	5.1977	-15.8588	0.4796	0.3793	0.2561	0.2228	0.3965	0.217	0.5295	0.2149	0.4154	0.3481	0.507	0.2468	0.3543	0.2304	0.2564	0.3095	0.3843	0.2066	0.3726	6.3272	1.5868	2.863	6	238	0.246078522596706	0	1
"239"	6	28	4	4	7.26	0	4	1	1	0.963	10.8736	9.5852	12.9107	18.1895	7.7114	4.404	12.5422	7.1223	10.9959	0.1558	6.8921	5.3079	3.2148	1.5365	6.0945	9.2862	-1.5975	4.5102	2.1402	11.8181	0.3231	0.3591	0.205	0.3261	0.3689	0.4382	0.3306	0.4602	0.2736	0.3006	0.2075	0.3066	0.2369	0.3847	0.4541	0.4154	0.3617	0.2049	0.3609	6.3182	1.4847	2.4468	6	239	-0.0377018671840115	1	0
"240"	6	65	4	-2	-3.63	0	6	-1	1	1.636	-3.1322	-0.5501	-5.4037	-7.1223	-0.7348	4.6629	-3.0728	-8.3258	0.122	7.087	-1.5131	-1.2335	-1.4631	-1.4583	-12.2357	-3.9578	-11.1273	-2.9935	-12.2071	-6.8197	0.2181	0.4016	0.2171	0.3351	0.2233	0.4542	0.2301	0.283	0.4385	0.2941	0.2684	0.3046	0.3431	0.4541	0.331	0.5075	0.2337	0.5183	0.2733	6.3292	1.5275	3.1698	6	240	0.492254238180555	0	1
"241"	6	27	4	2	3.63	0	5	1	1	1.57	5.2791	4.2593	5.6834	10.1096	2.9408	7.6426	-4.0253	8.7055	-4.9712	9.7757	10.7193	5.6649	7.9117	4.1423	0.8123	4.4572	0.1169	-2.9596	-5.0965	1.1617	0.5313	0.4372	0.3188	0.2056	0.3034	0.3458	0.3014	0.2135	0.2494	0.3158	0.4758	0.2016	0.2385	0.3841	0.2597	0.3962	0.2095	0.5225	0.4266	6.3367	1.5109	3.0871	6	241	0.451075619360217	1	0
"242"	6	57	4	-4	-7.26	1	3	-1	1	0.915	-3.3037	-5.3727	-10.3949	0.2242	-0.9187	-2.218	-14.1473	-16.3927	-6.3786	-5.0793	-1.8465	-0.311	-10.283	-10.8907	-9.2385	-9.5846	-7.2167	-16.9245	-6.971	-7.3803	0.333	0.333	0.333	0.333	0.333	0.333	0.333	0.333	0.333	0.333	0.333	0.333	0.333	0.333	0.333	0.333	0.333	0.333	0.333	6.327	1.6042	2.5322	6	242	-0.0888312137066157	0	1
"243"	6	45	4	-1	-1.815	1	13	-1	1	4.288	-5.3134	-2.5697	-3.1511	-0.9917	3.7365	0.2355	2.2515	-3.8855	2.7242	-6.5612	7.474	0.9342	-6.1821	-7.4852	-1.6661	6.2941	-10.7093	-0.3995	-9.8492	0.5016	0.333	0.333	0.333	0.333	0.333	0.333	0.333	0.333	0.333	0.333	0.333	0.333	0.333	0.333	0.333	0.333	0.333	0.333	0.333	6.327	1.4669	5.7716	6	243	1.4558204237685	0	1
"244"	6	40	4	1	1.815	0	7	1	1	2.192	4.8253	-8.2434	6.3358	3.5067	7.6899	3.1764	-0.9172	8.5861	-0.5461	5.2149	-4.6852	3.9036	9.3833	-3.2621	-5.9624	6.6626	-0.959	4.6183	0.6557	-2.4053	0.3352	0.2549	0.3523	0.4407	0.3591	0.2757	0.4384	0.2316	0.4933	0.3445	0.2072	0.2485	0.4424	0.3523	0.2263	0.3702	0.2085	0.4426	0.3025	6.3261	1.6645	3.8762	6	244	0.784814369085769	1	0
"245"	6	11	4	0	0	0	4	-1	1	1.155	-0.199	-5.8868	-5.9224	0.1443	-3.1137	11.2301	-3.2501	1.4701	3.1303	1.1292	-5.3342	6.7425	6.3998	-4.1777	-10.2441	2.5588	-1.9387	3.055	0.8303	2.4051	0.3847	0.2009	0.4602	0.3636	0.2414	0.3844	0.2768	0.3713	0.2891	0.2549	0.221	0.3432	0.3784	0.3436	0.2078	0.4064	0.2611	0.5084	0.4398	6.3369	1.6392	2.8054	6	245	0.144100343973757	0	1
"246"	6	68	4	1	1.815	0	7	1	1	1.795	2.8145	-1.5502	1.1837	-3.9876	-1.1442	3.8346	0.6228	2.7144	2.7031	-10.9872	7.1471	10.5649	-1.6292	6.0561	4.6832	-1.5937	8.0863	-1.7675	-1.3582	8.4619	0.3716	0.227	0.2535	0.4602	0.2001	0.2618	0.4219	0.2631	0.3791	0.3456	0.2995	0.4499	0.2652	0.2266	0.3484	0.2785	0.4178	0.3766	0.4765	6.3231	1.4161	3.2289	6	246	0.585005021940242	1	0
"247"	6	23	4	-2	-3.63	0	7	-1	1	2.151	-8.3891	2.1486	5.8511	-2.6045	-6.2314	-2.9727	-9.3173	-5.4929	-1.8991	-7.6059	-3.8809	-5.096	2.3217	-12.8456	-6.7736	-3.4641	-4.7424	-1.5258	-8.0702	7.393	0.2185	0.4182	0.3015	0.2212	0.5001	0.2956	0.2322	0.2817	0.3537	0.2962	0.3638	0.3123	0.3665	0.283	0.4851	0.2696	0.3666	0.2679	0.4949	6.3288	1.5892	3.7518	6	247	0.765932850285593	0	1
"248"	6	19	4	1	1.815	1	12	1	1	3.668	-2.4442	-1.5502	-2.2867	5.3003	7.2413	-1.6372	6.5786	4.1244	1.1391	4.0055	1.6397	-4.6424	0.7554	-5.0383	-3.8542	12.1584	10.6544	4.1514	-1.9358	2.8392	0.333	0.333	0.333	0.333	0.333	0.333	0.333	0.333	0.333	0.333	0.333	0.333	0.333	0.333	0.333	0.333	0.333	0.333	0.333	6.327	1.4903	5.1685	6	248	1.29964655439422	1	0
"249"	6	39	4	0	0	0	4	1	1	1.179	0.6473	2.7746	8.1582	-2.9008	-3.3929	-5.9758	2.6811	4.4044	-3.9007	0.0465	6.8824	1.1031	-9.5904	0.5001	-9.416	2.9228	1.3018	-2.972	-1.9805	6.7769	0.2619	0.3775	0.302	0.3468	0.3935	0.2018	0.4179	0.29	0.3477	0.2055	0.3951	0.4938	0.3153	0.2666	0.3939	0.2961	0.419	0.2381	0.3611	6.3238	1.4082	2.5962	6	249	0.164666621555234	1	0
"250"	6	10	4	-1	-1.815	0	10	-1	1	3.095	0.0971	-2.9309	-4.5089	-0.021	-2.5965	1.2398	-12.5857	-3.3722	-2.8065	-12.2955	3.5735	0.3094	7.0948	-6.5238	-0.0569	-0.5232	2.0631	4.1583	-0.3061	-7.7317	0.2816	0.2448	0.2891	0.4344	0.2082	0.3404	0.2105	0.4652	0.291	0.37	0.3205	0.4228	0.3094	0.3885	0.4722	0.226	0.2644	0.4499	0.3458	6.3349	1.4685	4.5622	6	250	1.12978790613656	0	1
"251"	6	5	4	1	1.815	1	8	1	1	2.629	5.5337	-2.1527	-1.9627	-2.1507	5.8278	5.1848	9.8406	-7.9973	1.4763	1.0798	-0.507	5.1913	7.801	7.3136	4.7732	4.5844	-7.9889	2.7202	-3.5979	2.557	0.333	0.333	0.333	0.333	0.333	0.333	0.333	0.333	0.333	0.333	0.333	0.333	0.333	0.333	0.333	0.333	0.333	0.333	0.333	6.327	1.4516	4.0795	6	251	0.966603545747744	1	0
"252"	6	14	4	4	7.26	0	3	1	1	1.054	8.2967	13.2357	13.8891	12.4486	15.551	5.8711	3.593	6.4779	5.0023	3.9333	7.1098	3.8043	13.7535	11.412	7.0666	-2.2226	11.2399	2.3832	0.2251	1.8459	0.3289	0.38	0.4349	0.3696	0.305	0.3722	0.3205	0.2134	0.4183	0.2988	0.2025	0.2541	0.4318	0.3049	0.3792	0.4682	0.3202	0.2317	0.2969	6.3311	1.6894	2.7384	6	252	0.0525924501191706	1	0
"253"	6	7	4	4	7.26	1	5	1	1	1.416	3.8288	2.3098	5.7295	12.1455	12.0984	2.5458	5.918	-2.899	4.5038	15.6051	9.8231	6.3302	11.2171	8.6632	13.7348	5.7049	8.1878	11.4766	11.751	-1.6244	0.333	0.333	0.333	0.333	0.333	0.333	0.333	0.333	0.333	0.333	0.333	0.333	0.333	0.333	0.333	0.333	0.333	0.333	0.333	6.327	1.6145	3.0338	6	253	0.347835995271528	1	0
"254"	6	20	4	2	3.63	1	8	1	1	2.597	1.451	0.2267	-5.8988	4.1856	2.1247	9.4372	5.6627	8.8916	1.5649	10.1783	0.9377	7.2815	9.3886	-3.8184	-5.4818	7.6821	3.4619	6.9327	6.133	0.3703	0.333	0.333	0.333	0.333	0.333	0.333	0.333	0.333	0.333	0.333	0.333	0.333	0.333	0.333	0.333	0.333	0.333	0.333	0.333	6.327	1.5948	4.214	6	254	0.954356932680611	1	0
"255"	6	52	4	-1	-1.815	0	8	-1	1	2.058	-5.2131	2.3393	-3.845	-1.535	7.9152	0.3845	-4.4706	-6.9177	0.4401	-2.5754	-0.7801	5.9981	-11.4506	-1.7717	-7.1798	3.3589	-2.2136	-8.1807	-3.4898	4.5614	0.311	0.2198	0.3591	0.3144	0.2317	0.3277	0.2566	0.3482	0.507	0.3069	0.2034	0.2302	0.3331	0.4743	0.3906	0.3028	0.4639	0.395	0.3587	6.3344	1.6145	3.6916	6	255	0.721734637411858	0	1
"256"	6	67	4	0	0	0	8	1	1	2.209	2.1302	9.3291	9.2568	-1.0851	-3.6124	2.3997	-3.5257	1.8081	-4.8612	6.3411	-0.6777	-0.1938	-8.6825	1.1491	-7.0396	6.4716	-2.0311	-2.6998	-2.832	-2.966	0.4043	0.2487	0.3963	0.2201	0.3031	0.3576	0.2456	0.3923	0.3169	0.205	0.5234	0.4348	0.342	0.2941	0.2384	0.4723	0.2229	0.2806	0.4224	6.321	1.5502	3.776	6	256	0.79253992443798	1	0
"257"	6	31	4	-1	-1.815	1	19	-1	1	6.193	-0.2809	-3.3292	-0.9471	7.9005	-8.4656	-9.3051	7.1413	-2.1785	-2.7665	-2.3083	4.7173	4.4868	-6.9776	-0.1814	-5.6481	-1.5711	-3.0068	-0.2592	-6.6604	-7.4146	0.333	0.333	0.333	0.333	0.333	0.333	0.333	0.333	0.333	0.333	0.333	0.333	0.333	0.333	0.333	0.333	0.333	0.333	0.333	6.327	1.4664	7.6765	6	257	1.82341962195592	0	1
"258"	6	58	4	-2	-3.63	1	4	-1	1	1.183	-5.4087	-3.6935	-3.1696	-3.5302	-0.2371	-12.8932	-7.3235	-0.8522	8.9018	-8.4543	-1.4209	-3.3396	-1.6711	-8.0926	-2.3492	-2.8319	-13.005	2.5953	-1.8997	-4.8284	0.333	0.333	0.333	0.333	0.333	0.333	0.333	0.333	0.333	0.333	0.333	0.333	0.333	0.333	0.333	0.333	0.333	0.333	0.333	6.327	1.411	2.6009	6	258	0.16805358499625	0	1
"259"	6	16	4	-2	-3.63	1	7	-1	1	2.151	-6.1685	4.2319	-3.3244	-5.3972	-1.0744	-3.9038	-0.5603	-7.0602	-2.8353	-10.1968	-4.4452	-10.1925	9.0719	-8.5472	-4.881	1.7887	-6.499	-10.1301	-3.855	0.4718	0.333	0.333	0.333	0.333	0.333	0.333	0.333	0.333	0.333	0.333	0.333	0.333	0.333	0.333	0.333	0.333	0.333	0.333	0.333	6.327	1.648	3.8017	6	259	0.765932850285593	0	1
"260"	6	38	4	-1	-1.815	0	10	-1	1	3.168	0.4214	-2.806	11.101	0.3792	-4.6622	-4.2433	-3.4766	0.8114	-4.1919	-7.0468	0.7528	0.2153	-0.7403	1.3857	-4.2796	4.7072	-6.8176	-13.1352	-3.6511	-0.5513	0.3011	0.344	0.2441	0.4347	0.3015	0.2383	0.3277	0.5081	0.2601	0.3411	0.2277	0.3027	0.506	0.3819	0.2302	0.298	0.3247	0.2939	0.4626	6.3284	1.6827	4.8524	6	260	1.15310047395218	0	1
"261"	6	21	4	4	7.26	1	6	1	1	1.676	8.8624	2.7633	3.1876	14.4456	3.0354	12.7103	6.9032	6.0953	17.9733	9.1359	0.2072	1.5358	-1.805	9.0776	9.6271	6.2148	9.3191	4.6701	11.6204	7.8295	0.333	0.333	0.333	0.333	0.333	0.333	0.333	0.333	0.333	0.333	0.333	0.333	0.333	0.333	0.333	0.333	0.333	0.333	0.333	6.327	1.4141	3.093	6	261	0.516410002059891	1	0
"262"	6	47	4	1	1.815	1	10	1	1	3.218	2.3516	-0.8185	0.9649	-8.6924	-2.2351	3.8832	3.6301	4.5197	4.16	4.0081	3.6738	-5.4459	1.7269	5.5557	5.8652	3.0126	3.1895	-1.5084	15.008	-5.2868	0.333	0.333	0.333	0.333	0.333	0.333	0.333	0.333	0.333	0.333	0.333	0.333	0.333	0.333	0.333	0.333	0.333	0.333	0.333	6.327	1.4579	4.6851	6	262	1.16876004857019	1	0
"263"	6	1	4	-4	-7.26	1	4	-1	1	1.118	-11.9223	-11.3442	-15.6007	-7.6484	-13.3456	-3.5698	-7.4812	-5.0353	-13.9496	-4.6658	-8.6763	1.1784	-4.2222	-1.2909	-5.0377	-5.7571	-2.6249	-9.1054	0.4081	-14.5004	0.333	0.333	0.333	0.333	0.333	0.333	0.333	0.333	0.333	0.333	0.333	0.333	0.333	0.333	0.333	0.333	0.333	0.333	0.333	6.327	1.5513	2.669	6	263	0.111541374732908	0	1
"264"	6	43	4	-4	-7.26	1	3	-1	1	0.967	-5.1255	-6.6246	-5.1403	-12.0474	-1.7353	-9.3042	-17.6377	-4.1625	-10.6413	-6.3126	5.2123	-5.0369	-12.883	-10.9091	-1.4169	-5.2278	-8.8282	-8.3103	-7.6571	-13.1822	0.333	0.333	0.333	0.333	0.333	0.333	0.333	0.333	0.333	0.333	0.333	0.333	0.333	0.333	0.333	0.333	0.333	0.333	0.333	6.327	1.5249	2.5008	6	264	-0.0335567835288428	0	1
"265"	6	69	4	2	3.63	0	3	1	1	0.794	3.0456	4.8358	-0.8649	1.4857	-0.319	1.1177	12.1246	3.7445	7.2911	5.268	3.0104	5.5138	-11.7261	3.733	0.003	4.4577	8.1094	12.2812	4.3897	3.2061	0.3032	0.2346	0.4537	0.3585	0.3072	0.3461	0.2602	0.5257	0.3072	0.4387	0.3196	0.2505	0.3204	0.4806	0.2699	0.3288	0.2214	0.2824	0.3252	6.3338	1.5494	2.3447	6	265	-0.230671817735001	1	0
"266"	6	37	4	-2	-3.63	0	5	1	0	1.229	-0.3827	-1.6839	2.0222	1.2171	-4.6255	-15.8841	-13.3554	-4.7751	0.4579	-10.6994	-5.0555	-0.6283	-1.7968	-6.4333	0.1495	2.3879	-8.2209	-0.96	-2.4272	-3.0027	0.3487	0.2351	0.2856	0.2212	0.4238	0.304	0.4478	0.2813	0.3133	0.4908	0.2314	0.2663	0.461	0.2759	0.4506	0.3222	0.379	0.2119	0.3765	6.3266	1.7284	2.963	6	266	0.206200830583898	1	0
"267"	6	12	4	1	1.815	0	5	1	1	1.35	4.0168	-2.9472	-1.0715	10.3637	4.4108	4.6028	0.6194	-8.3941	4.9122	8.5613	0.3019	6.1544	1.4112	-1.6065	-2.1069	2.3917	-0.9653	2.1364	10.5239	-5.7417	0.3307	0.3009	0.2616	0.3312	0.281	0.2321	0.2734	0.4055	0.2804	0.5018	0.3974	0.2576	0.2844	0.4698	0.2807	0.3491	0.3923	0.2099	0.478	6.3178	1.6081	2.9677	6	267	0.300104592450338	1	0
"268"	6	70	4	4	7.26	0	4	1	1	1.463	8.5999	-2.0897	14.5163	12.3553	0.5337	1.6793	5.3226	7.6605	1.4059	5.0556	12.0707	7.045	1.5826	10.9476	10.5994	11.6095	8.7198	4.2741	8.8692	15.0741	0.4143	0.4616	0.2189	0.4314	0.2	0.3604	0.2204	0.4726	0.2275	0.2803	0.2489	0.4316	0.2146	0.4453	0.3982	0.3277	0.4818	0.2737	0.2256	6.3348	1.5091	2.9806	6	268	0.380489122037987	1	0
"269"	6	13	4	2	3.63	0	8	1	1	2.526	-0.0682	-1.7903	-0.0383	10.3632	-2.8515	1.3505	16.3204	5.6358	3.6976	0.5838	7.4741	4.6603	5.6865	0.411	-0.4696	1.7523	4.5637	9.1532	8.217	-3.7879	0.2802	0.221	0.2931	0.5272	0.41	0.3362	0.4323	0.3353	0.2414	0.391	0.3622	0.2282	0.2932	0.3968	0.5088	0.3066	0.2036	0.3049	0.2592	6.3314	1.6887	4.2268	6	269	0.926637023928299	1	0
"270"	6	25	4	0	0	0	9	1	0	2.751	-0.9158	6.6538	-1.8841	0.9989	1.3287	2.2622	10.152	2.182	-2.8355	-1.1823	2.5344	-6.5929	-1.9602	-5.5651	-5.832	-0.3742	1.4744	4.4737	-11.1344	5.0228	0.2077	0.3967	0.2442	0.2886	0.3573	0.4014	0.3078	0.4695	0.2683	0.2118	0.2763	0.4529	0.2094	0.3764	0.5184	0.2937	0.2119	0.4569	0.3871	6.3364	1.5119	4.2687	6	270	1.01196448194244	1	0
"271"	6	32	4	0	0	1	18	-1	1	5.675	1.1535	-8.5567	-5.3039	-3.3966	1.2368	2.2232	2.413	5.7141	2.0787	3.1517	-6.5874	-4.0952	4.7007	-6.1239	5.3528	-2.9476	1.692	10.7365	1.2185	-4.4988	0.333	0.333	0.333	0.333	0.333	0.333	0.333	0.333	0.333	0.333	0.333	0.333	0.333	0.333	0.333	0.333	0.333	0.333	0.333	6.327	1.5091	7.1929	6	271	1.73607056336747	0	1
"272"	6	41	4	2	3.63	0	4	1	1	1.126	5.9245	6.193	9.4972	9.51	3.7258	7.7546	9.5887	5.5855	2.523	1.9293	-2.5757	7.6481	1.4191	-5.8944	0.3155	-0.0656	2.0985	-3.48	12.6172	-0.1245	0.2805	0.3425	0.2254	0.3016	0.4547	0.2749	0.5228	0.2456	0.3007	0.4928	0.3031	0.277	0.213	0.2646	0.4277	0.324	0.3913	0.4706	0.2221	6.3348	1.5222	2.6604	6	272	0.118671529717499	1	0
"273"	6	9	4	-2	-3.63	0	9	-1	1	2.844	1.0697	2.2148	-4.4352	-16.6305	5.8336	-6.3215	-1.7987	-11.2491	-1.6435	-1.5205	-0.1735	-1.5992	-7.5915	-6.2676	-5.6484	-6.0664	-7.9073	-1.2885	1.6993	-4.0831	0.2086	0.2883	0.4506	0.4191	0.3789	0.2816	0.3335	0.2943	0.393	0.2135	0.5232	0.2455	0.2169	0.3851	0.4706	0.3343	0.2134	0.4458	0.2391	6.3354	1.7303	4.5779	6	273	1.04521151194099	0	1
"274"	6	34	4	2	3.63	1	7	1	1	2.189	0.292	5.2604	9.4193	-2.2885	7.5601	-0.491	6.3749	3.647	12.1065	2.0872	8.7237	1.1797	-1.3926	5.4266	14.752	-1.3295	4.8938	1.2536	-1.5163	-1.5869	0.333	0.333	0.333	0.333	0.333	0.333	0.333	0.333	0.333	0.333	0.333	0.333	0.333	0.333	0.333	0.333	0.333	0.333	0.333	6.327	1.668	3.8564	6	274	0.783444818540726	1	0
"275"	6	56	4	4	7.26	0	5	1	1	1.304	11.8469	10.0215	-1.7128	12.8391	4.4807	7.2205	8.2535	7.4707	14.112	13.1196	15.9273	2.2878	8.7071	3.9187	4.2122	0.3664	0.1327	3.5772	9.7089	7.0066	0.3989	0.2862	0.2306	0.3417	0.3737	0.2906	0.4598	0.4178	0.2706	0.2023	0.2687	0.2984	0.4472	0.481	0.2304	0.3082	0.2646	0.4727	0.2777	6.3209	1.4574	2.7709	6	275	0.265436463504461	1	0
"276"	6	22	4	-4	-7.26	0	3	-1	1	1.042	-3.9891	-13.3167	0.3588	0.2898	-0.9142	-7.4196	-8.8583	-6.4666	-0.2166	-6.38	-12.6867	-6.418	-7.0424	-9.1068	-11.3455	-1.0322	-10.6367	-14.084	-11.3121	-13.3483	0.2632	0.3744	0.4563	0.343	0.2334	0.3753	0.2445	0.2713	0.3725	0.4941	0.2283	0.2923	0.2142	0.5122	0.3172	0.2207	0.3161	0.3795	0.4133	6.3219	1.6934	2.7432	6	276	0.0411419433311752	0	1
"277"	6	42	4	4	7.26	0	7	1	1	2.156	8.1275	1.362	0.5452	6.7632	7.999	1.0211	6.1209	17.4262	8.8948	12.4293	9.8891	7.6524	14.0324	2.8128	7.2903	10.1482	9.8144	13.1278	2.3542	-1.7697	0.2886	0.5007	0.2489	0.4993	0.3333	0.2842	0.4927	0.3757	0.3029	0.333	0.2463	0.3747	0.2384	0.2663	0.4146	0.2742	0.3693	0.2846	0.2092	6.3369	1.5848	3.7399	6	277	0.768254653046751	1	0
"278"	6	33	4	1	1.815	1	10	1	1	3.026	-0.4381	2.127	7.3646	6.3101	-2.7921	3.987	-0.6602	6.6818	6.0138	1.4264	2.3792	0.6279	-7.5082	3.1134	8.609	-5.3284	3.4766	-7.8891	-0.8744	10.2555	0.333	0.333	0.333	0.333	0.333	0.333	0.333	0.333	0.333	0.333	0.333	0.333	0.333	0.333	0.333	0.333	0.333	0.333	0.333	6.327	1.6539	4.677	6	278	1.10724161536616	1	0
"279"	6	24	4	-1	-1.815	0	6	-1	1	1.865	-3.2366	-7.2986	-7.216	-3.883	-1.9816	-4.3895	6.2111	-0.34	-0.4242	0.3667	2.3127	0.8904	0.0882	-2.3349	-0.1624	3.6873	-4.8449	-6.1217	-14.4256	7.0683	0.4868	0.2239	0.4132	0.2753	0.4224	0.3174	0.2336	0.5085	0.3603	0.3941	0.5129	0.2769	0.33	0.21	0.2609	0.3766	0.2309	0.2805	0.2098	6.3238	1.71	3.5995	6	279	0.623261053095779	0	1
"280"	6	44	4	-2	-3.63	1	3	-1	1	0.911	-7.8606	-5.9121	-2.7041	-4.1945	-7.6479	7.5765	-2.6755	-2.1868	-1.0516	-0.1258	-8.1046	-11.3729	-2.6647	1.3655	-5.1656	-10.8697	6.9773	-7.2095	-3.7688	-5.9317	0.333	0.333	0.333	0.333	0.333	0.333	0.333	0.333	0.333	0.333	0.333	0.333	0.333	0.333	0.333	0.333	0.333	0.333	0.333	6.327	1.5112	2.4453	6	280	-0.0932123817221787	0	1
