"subNo"	"index"	"block"	"level"	"mean"	"periodicity"	"nEvents"	"answer"	"isCorrect"	"rt"	"s1"	"s2"	"s3"	"s4"	"s5"	"s6"	"s7"	"s8"	"s9"	"s10"	"s11"	"s12"	"s13"	"s14"	"s15"	"s16"	"s17"	"s18"	"s19"	"s20"	"t1"	"t2"	"t3"	"t4"	"t5"	"t6"	"t7"	"t8"	"t9"	"t10"	"t11"	"t12"	"t13"	"t14"	"t15"	"t16"	"t17"	"t18"	"t19"	"seqDuration"	"startInterval"	"trialDuration"	"pID"	"Trial"	"rtLog"	"right"	"left"
"1"	15	36	1	-4	-4	0	5	-1	1	1.564	-6.338	0.7807	-4.2482	7.3347	-8.5052	-5.3118	-1.588	1.428	2.7746	-12.7493	-2.821	-8.4707	-0.3586	-4.9487	-10.0185	-9.2231	-1.7038	-3.249	-3.2912	-8.4797	0.3418	0.202	0.3681	0.3026	0.3635	0.2979	0.4884	0.3958	0.5274	0.2187	0.2535	0.2256	0.4701	0.3779	0.2355	0.4426	0.3246	0.2752	0.2092	6.3205	1.652	3.2319	15	1	0.447246642123119	0	1
"2"	15	38	1	-1	-1	0	11	-1	1	3.248	-0.7739	5.5955	-4.095	0.0622	-3.6357	-0.0691	-1.1107	-5.4504	-2.1289	3.6756	-10.9945	-12.0761	-3.0278	2.9976	0.0936	-5.9917	0.5405	4.817	5.8901	3.7458	0.2212	0.4183	0.2013	0.4281	0.2205	0.3976	0.3453	0.3717	0.2771	0.2154	0.3978	0.2476	0.5299	0.2764	0.217	0.4262	0.2301	0.4271	0.4751	6.3236	1.492	4.7486	15	2	1.17803942229943	0	1
"3"	15	59	1	-1	-1	1	6	-1	1	1.874	-4.6202	1.0266	-0.4377	-2.9678	0.4521	2.4147	10.4608	4.7696	-0.2208	-9.4395	1.3475	-3.4968	-4.6246	-12.8011	1.8397	4.6944	-3.7271	-3.5095	-1.0359	0.1815	0.333	0.333	0.333	0.333	0.333	0.333	0.333	0.333	0.333	0.333	0.333	0.333	0.333	0.333	0.333	0.333	0.333	0.333	0.333	6.327	1.6326	3.5076	15	3	0.628075183816231	0	1
"4"	15	40	1	1	1	0	3	1	1	1.008	3.0163	10.9946	3.1197	-5.2207	-0.5602	-2.0323	3.1789	-0.738	9.0772	-1.2212	4.029	-1.2383	3.908	-1.1651	-5.3189	7.5341	1.7564	5.8446	-8.5276	-4.4981	0.339	0.2626	0.4933	0.2444	0.2761	0.3208	0.2815	0.3606	0.2512	0.5224	0.2688	0.3271	0.4792	0.3965	0.2906	0.2385	0.4145	0.3167	0.237	6.321	1.4206	2.4416	15	4	0.00796816964917688	1	0
"5"	15	25	1	0	0	0	7	-1	1	1.867	-4.3651	3.4125	-1.5656	-4.7117	3.0829	-6.3389	7.0319	1.2683	1.3296	1.664	6.9362	3.103	-7.292	-10.3796	-1.0124	-3.3353	6.7956	-1.728	1.4005	5.7261	0.2088	0.3886	0.2709	0.3513	0.2612	0.3044	0.2273	0.3438	0.2028	0.2752	0.2461	0.2143	0.3118	0.4332	0.4655	0.5129	0.3768	0.4468	0.4778	6.3195	1.6061	3.4844	15	5	0.624332864559586	0	1
"6"	15	50	1	-4	-4	0	6	-1	1	1.557	0.315	-5.9918	-14.6503	-6.1809	-15.123	-3.9815	-2.9669	2.4335	-2.8918	-2.868	-9.6751	-1.716	-3.0882	1.0162	-9.7239	-3.8137	-2.2581	1.9089	-4.1044	2.7217	0.3706	0.2251	0.2845	0.4235	0.2462	0.306	0.4601	0.2119	0.2483	0.373	0.4999	0.4355	0.2463	0.3862	0.4578	0.296	0.3767	0.2127	0.2693	6.3298	1.6601	3.2247	15	6	0.442760892851861	0	1
"7"	15	39	1	0	0	0	8	1	1	2.616	2.3106	-3.4906	6.8112	4.5333	-9.1272	1.9374	-2.5577	-4.27	-5.8272	-0.1755	7.0892	-2.9625	-1.5952	1.1636	-0.9964	12.5785	1.57	-0.6185	-1.4451	-4.1642	0.4478	0.3425	0.2688	0.3692	0.2081	0.3625	0.2241	0.4866	0.2507	0.3838	0.3192	0.3712	0.3421	0.4038	0.4354	0.2939	0.2133	0.2619	0.3495	6.3344	1.6997	4.3172	15	7	0.961646433594952	1	0
"8"	15	15	1	-4	-4	1	5	-1	1	1.483	-4.6805	-7.4921	-3.9249	-7.7684	-0.3769	1.1562	-7.3906	-8.263	-1.3952	2.7029	-9.8345	4.7883	-1.6853	-7.3866	3.8584	-13.6295	-6.9683	-0.845	-1.1279	-8.6014	0.333	0.333	0.333	0.333	0.333	0.333	0.333	0.333	0.333	0.333	0.333	0.333	0.333	0.333	0.333	0.333	0.333	0.333	0.333	6.327	1.6487	3.1337	15	8	0.394067063155795	0	1
"9"	15	61	1	1	1	1	8	-1	0	2.577	0.6868	-0.6414	-7.4244	-4.9914	2.5106	4.2202	5.1045	5.1424	3.9351	-4.2175	-4.5496	4.2976	-6.1585	3.2596	-2.9385	-1.3164	7.3266	2.8862	12.5228	0.0706	0.333	0.333	0.333	0.333	0.333	0.333	0.333	0.333	0.333	0.333	0.333	0.333	0.333	0.333	0.333	0.333	0.333	0.333	0.333	6.327	1.5381	4.1107	15	9	0.946625931670228	0	1
"10"	15	3	1	-1	-1	1	13	-1	1	4.085	1.0985	-3.3413	10.3585	-4.6291	-0.4383	-7.2085	-7.3867	0.7598	-1.3619	2.4964	-1.9877	0.9309	0.2224	3.3499	-3.9153	0.6557	-10.1305	4.904	-8.0979	2.2756	0.333	0.333	0.333	0.333	0.333	0.333	0.333	0.333	0.333	0.333	0.333	0.333	0.333	0.333	0.333	0.333	0.333	0.333	0.333	6.327	1.4613	5.5523	15	10	1.40732172831197	0	1
"11"	15	51	1	-2	-2	0	8	-1	1	2.309	-4.975	5.6861	2.8013	1.198	-1.7894	-8.6278	-4.3918	-1.1935	0.7148	-8.7416	-2.1233	5.173	-1.0582	-6.3942	1.9526	-3.8336	-4.1548	-10.5246	6.0284	-7.7139	0.2839	0.4903	0.2127	0.2413	0.2009	0.5037	0.2823	0.4993	0.2221	0.4115	0.2105	0.3878	0.2088	0.4886	0.2312	0.4209	0.4789	0.2508	0.296	6.3215	1.7289	4.0598	15	11	0.836814530372358	0	1
"12"	15	28	1	4	4	0	8	1	1	2.392	3.3719	7.7786	13.0413	0.4422	0.2196	1.9285	5.8929	-0.4089	8.0592	-4.6311	3.5965	-0.7777	-2.3998	2.4796	-0.3481	9.8288	1.3931	12.0625	7.9932	8.7699	0.2654	0.2071	0.2752	0.526	0.2561	0.3476	0.2147	0.4972	0.361	0.2106	0.2557	0.33	0.3039	0.383	0.3366	0.4889	0.3317	0.4595	0.2671	6.3175	1.5556	3.959	15	12	0.872129836088385	1	0
"13"	15	48	1	2	2	1	10	1	1	3.192	-1.6909	10.8315	1.2028	2.1776	2.8469	0.3431	2.8237	9.8879	5.7191	9.7817	2.3732	-2.3068	-0.5922	-3.5988	-0.7101	-3.7426	-0.7618	-6.0199	11.2781	2.0769	0.333	0.333	0.333	0.333	0.333	0.333	0.333	0.333	0.333	0.333	0.333	0.333	0.333	0.333	0.333	0.333	0.333	0.333	0.333	6.327	1.4117	4.609	15	13	1.16064767958756	1	0
"14"	15	57	1	-4	-4	1	6	-1	1	1.852	-0.1082	-5.3699	-13.0005	8.6789	-7.0664	0.2965	-5.6184	-4.2464	-7.7104	-6.8063	-1.7693	-3.8972	-4.9683	-6.0882	-5.4588	-1.0541	1.1713	0.0291	-3.8926	-14.0389	0.333	0.333	0.333	0.333	0.333	0.333	0.333	0.333	0.333	0.333	0.333	0.333	0.333	0.333	0.333	0.333	0.333	0.333	0.333	6.327	1.5753	3.4358	15	14	0.616266136223988	0	1
"15"	15	49	1	4	4	1	10	1	1	3.171	0.4366	5.7482	7.8453	4.5177	-4.8705	3.7607	16.5842	-2.5404	3.9313	4.8226	0.5121	9.5595	2.6272	4.2191	0.0246	2.509	12.9583	1.7817	6.3455	-0.3112	0.333	0.333	0.333	0.333	0.333	0.333	0.333	0.333	0.333	0.333	0.333	0.333	0.333	0.333	0.333	0.333	0.333	0.333	0.333	6.327	1.7075	4.8886	15	15	1.15404699555621	1	0
"16"	15	33	1	1	1	1	6	1	1	1.876	2.9389	1.0043	4.6348	-3.5089	-0.1709	6.0581	-4.5965	-4.0364	-3.0956	0.5167	-2.9823	4.1926	9.5415	8.7191	3.8033	0.4955	-9.7387	8.8619	-1.1658	0.4126	0.333	0.333	0.333	0.333	0.333	0.333	0.333	0.333	0.333	0.333	0.333	0.333	0.333	0.333	0.333	0.333	0.333	0.333	0.333	6.327	1.5499	3.4268	15	16	0.629141850584033	1	0
"17"	15	9	1	-2	-2	0	4	-1	1	1.037	-5.6159	-3.372	2.4883	0.1579	2.9925	-10.0326	-11.0003	7.5605	1.875	-8.4942	1.207	-6.3359	-8.3624	-4.321	0.7359	1.7958	1.8593	-3.9248	-1.2433	1.5897	0.2765	0.2114	0.4466	0.3463	0.4945	0.3316	0.2219	0.4956	0.3979	0.3656	0.2321	0.3446	0.2079	0.2626	0.2985	0.3527	0.4348	0.4015	0.2032	6.3258	1.6651	2.7049	15	17	0.0363319292473902	0	1
"18"	15	26	1	1	1	0	6	-1	0	2.136	-0.374	-0.521	-3.6137	-0.0067	8.0711	5.1691	-2.0462	4.07	-3.0546	10.9652	9.6887	-2.4046	-0.8192	-1.1723	-3.9387	7.9841	2.8287	-5.6404	0.5215	-5.8374	0.4566	0.2521	0.4999	0.2238	0.4754	0.2688	0.2194	0.524	0.3091	0.2676	0.2085	0.3581	0.2514	0.3402	0.2963	0.3553	0.4813	0.3168	0.2229	6.3276	1.4229	3.5698	15	18	0.758934921097948	0	1
"19"	15	23	1	-2	-2	0	9	-1	1	2.905	0.958	2.4235	-6.6956	-5.2363	-10.7937	0.1812	-4.3955	-0.1141	-0.9007	-7.1398	0.9905	7.0987	-0.4097	5.8856	-10.9977	-7.6617	-3.6375	-2.1512	2.7302	0.566	0.5042	0.2313	0.3654	0.4091	0.217	0.4301	0.4015	0.2004	0.2284	0.2556	0.5054	0.3901	0.2172	0.2801	0.2335	0.5144	0.3183	0.2728	0.3613	6.3362	1.4058	4.3225	15	19	1.06643339030387	0	1
"20"	15	34	1	2	2	1	11	1	1	3.38	5.0494	2.7593	-0.8745	-0.6502	2.4526	-2.97	4.5249	13.8817	3.0189	-6.3502	-0.2839	-1.4126	0.2775	-5.7416	0.215	-2.3896	7.4127	6.3874	6.975	8.6115	0.333	0.333	0.333	0.333	0.333	0.333	0.333	0.333	0.333	0.333	0.333	0.333	0.333	0.333	0.333	0.333	0.333	0.333	0.333	6.327	1.6451	5.0309	15	20	1.21787570949493	1	0
"21"	15	31	1	-1	-1	1	8	-1	1	2.432	-3.4848	-4.7439	4.4063	-0.0365	1.2206	8.1755	-8.701	7.8563	-0.2986	0.8677	-5.7569	-3.4554	-1.133	-0.8574	-3.5405	1.1351	6.694	-5.6239	-9.7389	-4.0325	0.333	0.333	0.333	0.333	0.333	0.333	0.333	0.333	0.333	0.333	0.333	0.333	0.333	0.333	0.333	0.333	0.333	0.333	0.333	6.327	1.4607	3.8998	15	21	0.888713964103921	0	1
"22"	15	12	1	1	1	0	8	1	1	2.762	-1.5005	7.3567	-7.4859	-0.9542	9.0535	1.1431	3.8312	-5.4791	-0.4818	-0.8517	-1.0102	-8.6738	9.9268	5.3146	5.0596	-3.6179	2.0275	3.3118	1.3253	2.2272	0.4595	0.2243	0.3439	0.3921	0.2489	0.4766	0.2984	0.3241	0.203	0.3923	0.3007	0.3298	0.426	0.2664	0.459	0.3933	0.2928	0.2327	0.2718	6.3357	1.6446	4.43	15	22	1.0159550549871	1	0
"23"	15	20	1	2	2	1	9	-1	0	2.763	-1.7704	-3.2803	2.8024	1.2894	4.8023	0.6839	-6.4264	-6.4419	9.1749	-0.3816	5.781	1.8696	-3.6388	6.9359	-0.1416	8.2336	2.9255	4.336	11.4888	2.1965	0.333	0.333	0.333	0.333	0.333	0.333	0.333	0.333	0.333	0.333	0.333	0.333	0.333	0.333	0.333	0.333	0.333	0.333	0.333	6.327	1.6948	4.4808	15	23	1.01631704594128	0	1
"24"	15	60	1	0	0	1	10	-1	1	3.05	3.5135	-7.5215	3.1545	-6.38	-7.6856	6.7724	-8.9536	2.3088	-3.2362	5.4537	4.8633	-4.0565	-1.8336	-2.1219	5.0483	-1.2649	-1.0085	3.3894	6.1482	2.5586	0.333	0.333	0.333	0.333	0.333	0.333	0.333	0.333	0.333	0.333	0.333	0.333	0.333	0.333	0.333	0.333	0.333	0.333	0.333	6.327	1.625	4.6839	15	24	1.11514159061932	0	1
"25"	15	16	1	-2	-2	1	5	-1	1	1.464	-2.819	-4.7592	-11.6198	8.4962	1.0712	-5.2613	-9.6844	-6.2453	-0.3517	-2.7491	2.7925	-1.7359	0.9638	5.4976	-0.5292	-2.3534	-5.3293	2.3194	-7.7253	-0.1877	0.333	0.333	0.333	0.333	0.333	0.333	0.333	0.333	0.333	0.333	0.333	0.333	0.333	0.333	0.333	0.333	0.333	0.333	0.333	6.327	1.4674	2.9483	15	25	0.38117241553912	0	1
"26"	15	46	1	0	0	1	6	-1	1	1.924	1.4947	2.4861	-2.2032	-1.1706	-5.9364	-6.4867	3.9852	-1.9183	-4.6832	-2.0576	0.196	13.2279	-5.0592	-1.8639	2.6565	-1.8575	2.8938	-1.4388	-3.5233	10.6411	0.333	0.333	0.333	0.333	0.333	0.333	0.333	0.333	0.333	0.333	0.333	0.333	0.333	0.333	0.333	0.333	0.333	0.333	0.333	6.327	1.6554	3.5912	15	26	0.654406352243515	0	1
"27"	15	67	1	0	0	0	5	-1	1	1.88	-1.8745	4.6298	-0.6074	-2.8332	-5.1572	6.3072	5.5449	-0.9037	-0.7028	-5.7995	5.2684	6.3892	-0.3392	-2.7783	0.0536	5.345	6.4128	0.4577	-8.8719	-10.1738	0.3437	0.4528	0.2963	0.4715	0.413	0.2617	0.5258	0.2962	0.3805	0.4244	0.322	0.2552	0.2153	0.342	0.2859	0.2124	0.2381	0.2762	0.3111	6.3242	1.4961	3.3803	15	27	0.631271776841858	0	1
"28"	15	44	1	-2	-2	1	3	-1	1	0.988	-6.2481	-7.0723	1.3922	-0.6442	7.5318	-3.401	-4.2051	-6.3831	-0.9027	0.0865	-8.1914	0.8232	4.221	-6.9411	-8.8004	-7.3435	2.0128	-2.7519	1.7509	6.2196	0.333	0.333	0.333	0.333	0.333	0.333	0.333	0.333	0.333	0.333	0.333	0.333	0.333	0.333	0.333	0.333	0.333	0.333	0.333	6.327	1.7017	2.7053	15	28	-0.0120725812342692	0	1
"29"	15	13	1	2	2	0	10	1	1	3.45	6.2664	-1.3847	0.7815	-2.3227	11.1072	2.9088	-2.2356	-3.4423	7.5518	-1.2973	-5.4025	-1.0939	2.6746	10.3598	1.8584	6.8172	0.1082	-2.4468	0.0242	9.5912	0.2978	0.2709	0.3224	0.4537	0.2671	0.3259	0.4583	0.5277	0.3412	0.3808	0.213	0.3465	0.2132	0.3211	0.2572	0.3959	0.3468	0.2254	0.3548	6.3196	1.4416	4.9005	15	29	1.23837423104327	1	0
"30"	15	69	1	2	2	0	6	1	1	1.774	2.7801	0.363	7.8078	-5.4665	1.5912	-2.1526	1.2499	0.8565	0.5553	1.2416	12.3842	6.2213	-0.485	4.9887	-4.0773	0.3183	4.4636	2.6844	12.4321	-6.6517	0.2125	0.3324	0.3026	0.5181	0.2064	0.4336	0.4648	0.3593	0.3026	0.2383	0.2855	0.4049	0.2632	0.2303	0.426	0.4734	0.3598	0.3168	0.1999	6.3302	1.4742	3.2579	15	30	0.573236883887388	1	0
"31"	15	55	1	2	2	0	9	-1	0	2.958	-1.7353	7.0072	1.7477	4.8874	-1.0104	4.8543	11.1043	-1.3167	-1.6664	4.3179	-3.9473	-5.414	6.5523	3.9347	1.3429	7.0029	-6.2281	-3.2179	10.3714	1.7679	0.5268	0.244	0.2995	0.2373	0.2832	0.4981	0.2329	0.4883	0.28	0.2166	0.3113	0.4196	0.3316	0.2473	0.2032	0.2774	0.4855	0.2547	0.4884	6.3255	1.539	4.5085	15	31	1.08451336428861	0	1
"32"	15	65	1	-2	-2	0	4	-1	1	1.312	-0.5485	-8.3467	1.1948	3.1899	1.4884	0.5487	-1.7728	0.5674	0.0805	-3.2243	-8.099	1.2397	-3.3304	3.5981	-13.2638	6.2676	-7.7159	-3.1718	-9.6545	1.2872	0.288	0.3797	0.4788	0.286	0.2163	0.3726	0.2257	0.3375	0.2338	0.4544	0.2705	0.2992	0.3833	0.3208	0.4139	0.3825	0.4344	0.3489	0.2072	6.3337	1.5534	2.8627	15	32	0.271552690521897	0	1
"33"	15	18	1	0	0	1	6	1	0	1.835	2.6943	-2.9513	10.3658	-10.5756	-0.785	-5.1011	7.3494	-2.5235	1.6254	-2.0205	5.8807	1.3598	-1.9485	4.9482	-0.7713	-0.2504	-6.8355	-0.3365	-3.6727	4.8943	0.333	0.333	0.333	0.333	0.333	0.333	0.333	0.333	0.333	0.333	0.333	0.333	0.333	0.333	0.333	0.333	0.333	0.333	0.333	6.327	1.5663	3.4027	15	33	0.607044481506534	1	0
"34"	15	17	1	-1	-1	1	7	-1	1	2.197	-1.3664	-0.448	-2.7308	-4.0308	-2.8502	-7.8095	0.91	3.022	-0.856	1.6585	9.0122	-6.5263	-3.3693	2.8831	4.2045	-10.111	-8.5727	2.6192	6.2119	-0.6572	0.333	0.333	0.333	0.333	0.333	0.333	0.333	0.333	0.333	0.333	0.333	0.333	0.333	0.333	0.333	0.333	0.333	0.333	0.333	6.327	1.4526	3.6642	15	34	0.787092793402473	0	1
"35"	15	24	1	-1	-1	0	4	-1	1	0.912	-3.757	-3.385	5.6837	5.9117	-6.8139	6.418	4.5937	5.7712	-11.1514	0.4902	-0.3651	2.4154	-5.1154	-4.2346	-2.7821	-0.0573	-4.7901	-4.9102	-3.8764	0.3029	0.252	0.219	0.4087	0.3268	0.2455	0.2185	0.2484	0.3523	0.5233	0.2651	0.3939	0.5094	0.3851	0.2028	0.2718	0.5202	0.4817	0.292	0.2031	6.3197	1.594	2.5294	15	35	-0.0921152889078056	0	1
"36"	15	27	1	2	2	0	3	-1	0	0.927	-1.7819	-2.5723	2.7659	-3.1509	6.0058	9.1685	-3.2845	-2.8672	-0.5017	-0.4098	5.9598	1.3254	13.3228	0.8742	-1.6561	-1.5492	10.4463	4.8374	-2.0668	5.9007	0.3058	0.3987	0.2939	0.2419	0.3434	0.4389	0.2016	0.2624	0.2238	0.4005	0.3001	0.4513	0.2666	0.4589	0.2165	0.2897	0.4856	0.4309	0.3219	6.3324	1.402	2.3444	15	36	-0.0758017134162818	0	1
"37"	15	19	1	1	1	1	15	-1	0	4.983	0.4823	3.4632	5.4933	-1.0452	-4.4318	2.6249	-3.3654	3.3545	3.0798	-0.8198	-1.5464	3.1434	2.1628	-4.6304	-6.4196	16.2873	-3.6465	4.3811	1.1443	2.1594	0.333	0.333	0.333	0.333	0.333	0.333	0.333	0.333	0.333	0.333	0.333	0.333	0.333	0.333	0.333	0.333	0.333	0.333	0.333	6.327	1.6083	6.6002	15	37	1.60603211929927	0	1
"38"	15	42	1	4	4	0	6	1	1	1.783	7.9402	9.0581	3.2773	1.6672	6.5323	8.8308	0.2859	1.6286	-2.0168	14.5027	0.7955	12.4069	2.4069	1.2599	-6.6429	1.3275	3.7293	-0.0208	6.051	5.0549	0.2493	0.2131	0.3823	0.2282	0.2808	0.4533	0.2836	0.202	0.4797	0.5287	0.3697	0.2654	0.3749	0.2007	0.4659	0.2779	0.5019	0.3177	0.2496	6.3248	1.5117	3.3001	15	38	0.578297338881003	1	0
"39"	15	47	1	1	1	1	8	1	1	2.412	2.0954	0.3475	4.7663	-6.2328	4.1465	6.3896	9.0416	-1.0113	-2.7838	-4.6582	-1.7004	-0.8056	-4.0084	2.6064	-1.6689	9.1648	2.5027	-7.427	8.2837	1.9712	0.333	0.333	0.333	0.333	0.333	0.333	0.333	0.333	0.333	0.333	0.333	0.333	0.333	0.333	0.333	0.333	0.333	0.333	0.333	6.327	1.4202	3.8462	15	39	0.880456278864939	1	0
"40"	15	7	1	4	4	1	4	-1	0	1.125	1.2764	0.2476	-0.4548	12.3145	2.8495	3.902	3.3788	10.8408	8.6825	13.3736	3.1849	7.9677	-1.2354	8.9266	5.6515	5.0747	-3.7693	-2.5004	-1.9096	2.9833	0.333	0.333	0.333	0.333	0.333	0.333	0.333	0.333	0.333	0.333	0.333	0.333	0.333	0.333	0.333	0.333	0.333	0.333	0.333	6.327	1.7159	2.8422	15	40	0.117783035656383	0	1
"41"	15	41	1	2	2	0	9	1	1	2.747	4.2626	-8.459	9.1216	-1.6969	-0.7714	6.3027	4.2817	1.8297	7.8061	6.455	2.2658	-4.9887	9.2811	-2.1093	-3.0154	5.959	5.3593	-2.471	3.1552	-1.6888	0.3591	0.2302	0.2717	0.3248	0.3914	0.4882	0.2147	0.3303	0.451	0.3162	0.4149	0.2205	0.3075	0.2203	0.4562	0.4257	0.241	0.4134	0.2518	6.329	1.7033	4.4641	15	41	1.01050940711314	1	0
"42"	15	22	1	-4	-4	0	4	-1	1	1.251	-2.9502	5.8407	-4.6392	2.2411	-5.2371	-1.198	-5.5368	-5.6336	6.4623	-8.7431	-4.0679	-14.5492	0.6622	-6.146	-5.123	-3.8418	-7.6067	-6.1016	-2.9112	-8.9397	0.201	0.2655	0.3272	0.4882	0.4016	0.2952	0.2642	0.4052	0.2828	0.2049	0.3733	0.3385	0.3904	0.2211	0.3791	0.435	0.2174	0.4962	0.34	6.3268	1.413	2.6683	15	42	0.223943231484774	0	1
"43"	15	37	1	-2	-2	0	3	-1	1	1.034	-3.6352	-3.7264	2.9984	-6.6276	1.442	-2.7421	0.6991	4.7947	-2.9314	-1.7645	-2.8577	1.0519	1.5371	-10.4691	-7.022	-8.2013	-6.2467	-3.6276	-3.6766	11.8805	0.4691	0.2467	0.439	0.2254	0.4272	0.293	0.2292	0.3124	0.3746	0.248	0.2124	0.3113	0.3677	0.4447	0.2411	0.4763	0.3619	0.2944	0.3559	6.3302	1.7068	2.7519	15	43	0.0334347760862374	0	1
"44"	15	56	1	4	4	0	8	1	1	2.148	6.0525	-2.2323	3.1608	7.3302	-1.8742	11.1819	3.4541	8.6878	-4.8601	10.9935	9.9984	3.2709	6.1926	2.9286	1.4086	0.2974	4.4289	6.864	-4.9438	8.1154	0.4089	0.3304	0.2167	0.2865	0.3366	0.2239	0.3384	0.2181	0.5188	0.2504	0.4991	0.2028	0.4517	0.246	0.2855	0.3208	0.3633	0.5149	0.3066	6.3193	1.4126	3.5658	15	44	0.764537176646618	1	0
"45"	15	14	1	4	4	0	4	-1	0	1.257	-0.1857	12.1928	-1.2492	1.5456	6.0526	8.4252	3.2592	-0.1507	-4.5031	0.1672	7.7255	0.1814	7.5462	2.6692	-4.3755	10.1196	11.8531	8.6573	3.6729	6.0563	0.2337	0.5214	0.3658	0.2298	0.4478	0.3294	0.2584	0.3364	0.2528	0.2109	0.3606	0.2507	0.4659	0.2453	0.502	0.3493	0.4738	0.2702	0.2132	6.3175	1.4527	2.7074	15	45	0.22872792960811	0	1
"46"	15	43	1	-4	-4	1	5	-1	1	1.624	-4.7448	-8.2774	1.4753	-5.2324	1.9792	-1.9834	-8.1937	2.6941	6.6375	-3.4854	-2.7748	-1.8719	-11.1911	-3.4871	-8.267	-9.5555	-0.214	-13.861	-3.3288	-6.3009	0.333	0.333	0.333	0.333	0.333	0.333	0.333	0.333	0.333	0.333	0.333	0.333	0.333	0.333	0.333	0.333	0.333	0.333	0.333	6.327	1.4607	3.0916	15	46	0.484892241739486	0	1
"47"	15	6	1	2	2	1	7	1	1	2.044	6.2213	-1.8424	1.136	3.6699	11.6947	3.3442	-1.7434	-7.6507	0.7371	-3.048	2.7514	2.5558	8.6693	-1.3272	-3.6105	12.5803	1.1952	2.691	-1.5746	2.6869	0.333	0.333	0.333	0.333	0.333	0.333	0.333	0.333	0.333	0.333	0.333	0.333	0.333	0.333	0.333	0.333	0.333	0.333	0.333	6.327	1.5802	3.6282	15	47	0.714908672341458	1	0
"48"	15	53	1	0	0	0	5	-1	0	1.252	3.237	-7.2931	0.0263	0.4087	11.3445	-2.9266	4.4498	-9.4656	1.2693	4.8747	-2.9298	-1.353	3.3496	5.0116	-0.6341	-5.2869	-0.7374	-6.9625	0.4427	1.5215	0.2385	0.2903	0.3199	0.3684	0.3245	0.2245	0.4664	0.4237	0.3129	0.3401	0.2272	0.3881	0.4641	0.2191	0.4391	0.2167	0.4008	0.3726	0.2831	6.3199	1.6577	2.9193	15	48	0.224742272677907	0	1
"49"	15	4	1	0	0	1	16	-1	1	5.323	1.4032	1.4127	4.2662	-3.0776	-3.2546	4.398	-4.2172	5.388	-6.7809	-4.59	12.6522	-3.1202	-3.2625	-3.4008	6.543	-3.4652	-2.1511	0.6247	-4.4201	5.3607	0.333	0.333	0.333	0.333	0.333	0.333	0.333	0.333	0.333	0.333	0.333	0.333	0.333	0.333	0.333	0.333	0.333	0.333	0.333	6.327	1.6536	6.9901	15	49	1.67203705419062	0	1
"50"	15	29	1	-4	-4	1	5	-1	1	1.487	-6.0173	-7.1111	-0.5405	-13.2198	-2.4376	-1.6891	-5.0567	-2.5539	-0.0101	6.3054	-0.2369	0.106	-10.8601	-6.2536	-9.8661	-8.8172	3.3416	-8.9654	-3.5759	-1.5468	0.333	0.333	0.333	0.333	0.333	0.333	0.333	0.333	0.333	0.333	0.333	0.333	0.333	0.333	0.333	0.333	0.333	0.333	0.333	6.327	1.6135	3.1212	15	50	0.396760667478018	0	1
"51"	15	5	1	1	1	1	12	-1	0	3.798	5.8761	-4.9381	0.2704	4.8303	-0.0286	-0.6481	-4.373	0.2505	-1.3928	-4.9669	-0.2706	7.239	5.455	11.1229	-2.9173	0.4346	1.7038	0.0631	-7.7144	9.8502	0.333	0.333	0.333	0.333	0.333	0.333	0.333	0.333	0.333	0.333	0.333	0.333	0.333	0.333	0.333	0.333	0.333	0.333	0.333	6.327	1.6266	5.4321	15	51	1.33447461239009	0	1
"52"	15	8	1	-4	-4	0	8	-1	1	2.497	-1.7868	1.1529	1.6077	2.6303	-10.06	1.9192	-2.5923	-8.4994	-16.6549	-3.2787	-3.4207	-1.6207	-3.1517	-2.339	-9.1901	0.3919	-9.5648	-4.055	-8.125	-3.5165	0.4293	0.2804	0.4	0.248	0.2176	0.4563	0.205	0.2858	0.4766	0.2865	0.3722	0.2956	0.4921	0.3712	0.2102	0.2736	0.3093	0.2345	0.4763	6.3206	1.7294	4.2312	15	52	0.915090011297636	0	1
"53"	15	32	1	0	0	1	6	-1	1	1.87	-2.5656	2.4994	-2.4491	-3.6965	-5.7601	0.2317	-6.7872	5.1872	4.5565	4.9027	-4.2454	-2.6453	-6.7956	4.6269	1.2319	6.2143	10.3081	-7.3328	-1.1379	2.9592	0.333	0.333	0.333	0.333	0.333	0.333	0.333	0.333	0.333	0.333	0.333	0.333	0.333	0.333	0.333	0.333	0.333	0.333	0.333	6.327	1.6011	3.4874	15	53	0.625938430866495	0	1
"54"	15	10	1	-1	-1	0	12	-1	1	4.244	-3.9002	-5.0076	-3.3924	1.0398	5.1934	3.9	-1.7361	-7.9402	4.2832	-4.5301	-7.1609	6.1206	-12.0309	-2.0938	0.9132	0.0437	6.715	-1.5237	1.6002	0.2294	0.3937	0.2564	0.4804	0.4399	0.2911	0.3305	0.3	0.4807	0.2447	0.4567	0.3608	0.289	0.3512	0.235	0.4044	0.31	0.2274	0.259	0.2129	6.3239	1.6385	5.8947	15	54	1.44550622075174	0	1
"55"	15	54	1	1	1	0	8	1	1	2.296	2.8961	5.0795	11.037	-1.9357	2.0615	7.545	7.3941	0.7498	-0.8235	1.3886	-3.2832	-2.0365	-0.8007	0.2657	-2.1656	4.316	-11.1913	5.259	0.3193	-5.4814	0.2526	0.391	0.2882	0.3836	0.4196	0.3332	0.2149	0.4131	0.5084	0.4193	0.285	0.4369	0.2111	0.4586	0.2428	0.2908	0.236	0.3234	0.2123	6.3207	1.6759	3.9806	15	55	0.83116847845732	1	0
"56"	15	58	1	-2	-2	1	13	-1	1	4.259	-3.2098	-0.3374	10.8477	-5.0113	1.0191	3.9031	-5.9417	3.1993	-4.5375	-8.1593	-6.6607	2.1043	-6.8068	0.8329	-6.185	-3.8913	-4.6421	4.5035	-5.95	-4.4957	0.333	0.333	0.333	0.333	0.333	0.333	0.333	0.333	0.333	0.333	0.333	0.333	0.333	0.333	0.333	0.333	0.333	0.333	0.333	6.327	1.5174	5.7761	15	56	1.44903439094108	0	1
"57"	15	66	1	-1	-1	0	14	1	0	4.242	3.2363	-5.5045	6.2637	-1.2062	7.4514	-3.4432	2.144	-1.1133	-1.4268	-11.5885	2.0861	-6.697	4.2655	1.637	-6.1131	-1.1702	0.2607	-6.2494	-7.1676	3.5145	0.3779	0.2007	0.312	0.3992	0.2744	0.439	0.2256	0.3261	0.2736	0.3046	0.3495	0.3776	0.2774	0.2078	0.2872	0.3719	0.5078	0.3356	0.4723	6.3203	1.5578	5.8091	15	57	1.44503485614249	1	0
"58"	15	64	1	-4	-4	0	11	-1	1	3.508	-6.7712	-3.2371	-0.2797	-1.9269	-3.7723	0.6983	-2.2632	-1.6994	1.2401	-1.7855	-2.6853	-10.6346	-5.9753	-6.3959	-0.3964	-0.1827	-4.6676	0.855	-18.8554	-11.5989	0.2602	0.5132	0.2532	0.4035	0.2034	0.2307	0.3941	0.434	0.2181	0.5198	0.2782	0.3462	0.2929	0.4263	0.4533	0.3392	0.2414	0.3	0.2267	6.3344	1.5611	5.0922	15	58	1.25504607450994	0	1
"59"	15	2	1	-2	-2	1	17	1	0	5.429	-0.8063	4.8361	-3.1701	-0.7667	-0.9297	-5.6513	6.5909	-3.3874	-13.8992	-5.3506	-6.1929	2.2733	1.0616	-5.1069	3.054	-2.8409	2.0905	2.5973	-9.014	-7.2644	0.333	0.333	0.333	0.333	0.333	0.333	0.333	0.333	0.333	0.333	0.333	0.333	0.333	0.333	0.333	0.333	0.333	0.333	0.333	6.327	1.665	7.113	15	59	1.69175495492331	1	0
"60"	15	70	1	4	4	0	12	1	1	3.816	3.6724	0.9156	3.3778	7.4106	-6.5279	9.084	8.2692	-0.1428	2.463	10.9432	1.4487	6.3858	2.1769	6.4629	5.2692	10.659	3.8156	-7.9686	8.522	4.8278	0.2606	0.2111	0.3554	0.2133	0.3355	0.2522	0.3564	0.2455	0.2109	0.5305	0.3534	0.4979	0.3612	0.2733	0.3739	0.4935	0.2714	0.213	0.5176	6.3266	1.4688	5.3001	15	60	1.33920275358604	1	0
"61"	15	68	1	1	1	0	14	1	1	4.725	-2.1949	1.8442	0.6334	3.9893	3.2571	-8.5105	-1.6812	-0.3004	8.1868	-2.6958	13.2634	-1.4335	1.9765	2.3834	5.1066	4.5798	-1.515	-3.9891	-6.7868	2.2644	0.4793	0.3461	0.4818	0.2009	0.3403	0.2031	0.4959	0.3256	0.3895	0.2059	0.4099	0.3275	0.2249	0.5068	0.2847	0.2378	0.3869	0.2744	0.2062	6.3273	1.433	6.1755	15	61	1.55286756094571	1	0
"62"	15	35	1	4	4	1	6	1	1	1.741	1.4436	1.0672	8.2136	6.0211	7.1599	7.8542	0.6759	-7.812	0.7136	2.9941	4.8022	10.7987	11.1233	0.8429	3.1386	7.7417	9.3903	5.1839	3.5848	-6.25	0.333	0.333	0.333	0.333	0.333	0.333	0.333	0.333	0.333	0.333	0.333	0.333	0.333	0.333	0.333	0.333	0.333	0.333	0.333	6.327	1.55	3.292	15	62	0.554459660786052	1	0
"63"	15	62	1	2	2	1	6	1	1	1.744	1.3781	6.1393	8.2881	4.7794	1.6436	-1.666	1.1942	2.2869	-10.7996	-1.9296	6.0926	-3.7913	4.3318	1.4808	12.3199	-3.0117	-1.3746	2.5084	4.9601	5.1406	0.333	0.333	0.333	0.333	0.333	0.333	0.333	0.333	0.333	0.333	0.333	0.333	0.333	0.333	0.333	0.333	0.333	0.333	0.333	6.327	1.405	3.1619	15	63	0.556181325486788	1	0
"64"	15	63	1	4	4	1	10	1	1	3.263	1.0594	-1.3237	-3.5945	3.8581	-2.4096	5.9152	9.6947	-0.5008	10.4972	7.4811	-1.576	3.5791	2.8146	10.2532	1.8642	9.418	-0.0997	13.7385	5.002	2.5517	0.333	0.333	0.333	0.333	0.333	0.333	0.333	0.333	0.333	0.333	0.333	0.333	0.333	0.333	0.333	0.333	0.333	0.333	0.333	6.327	1.6701	4.9472	15	64	1.18264701761118	1	0
"65"	15	1	1	-4	-4	1	12	-1	1	3.833	-5.523	-1.564	1.4664	-4.1284	1.542	-6.4372	-5.3379	1.7141	-6.2701	-5.707	-2.3541	-12.3515	-0.577	-10.796	-4.9359	-7.0711	-3.6173	7.5318	-3.2467	-14.0159	0.333	0.333	0.333	0.333	0.333	0.333	0.333	0.333	0.333	0.333	0.333	0.333	0.333	0.333	0.333	0.333	0.333	0.333	0.333	6.327	1.4013	5.2336	15	65	1.34364778639842	0	1
"66"	15	45	1	-1	-1	1	10	1	0	3.153	-0.1452	10.6332	3.7127	-1.2249	-3.2572	-5.6504	-5.1254	-0.6396	-2.3346	4.4163	-8.8458	-5.8293	-1.7027	-4.1545	-3.5721	-0.1594	-7.0257	6.765	-2.1967	5.4833	0.333	0.333	0.333	0.333	0.333	0.333	0.333	0.333	0.333	0.333	0.333	0.333	0.333	0.333	0.333	0.333	0.333	0.333	0.333	6.327	1.4536	4.6036	15	66	1.14835438056292	1	0
"67"	15	52	1	-1	-1	0	8	-1	1	2.674	-2.4465	-2.7387	2.9833	4.091	-2.3657	-4.6113	0.429	-3.6533	-3.083	4.6612	-4.4497	1.3477	-4.8269	-9.4936	-6.3959	6.2169	-6.7207	3.5872	-1.2629	10.2017	0.5049	0.2275	0.3539	0.4425	0.3766	0.255	0.457	0.2355	0.44	0.4996	0.4024	0.2428	0.4007	0.2141	0.246	0.2042	0.3115	0.2203	0.2948	6.3294	1.5462	4.2248	15	67	0.983575478679751	0	1
"68"	15	21	1	4	4	1	6	1	1	1.984	1.0076	-0.0954	-0.46	-2.0312	8.2426	7.9652	1.5035	11.5911	2.0107	7.8127	-3.1989	2.338	3.2995	10.4213	-1.1668	1.5437	13.7746	0.9853	9.6976	4.2711	0.333	0.333	0.333	0.333	0.333	0.333	0.333	0.333	0.333	0.333	0.333	0.333	0.333	0.333	0.333	0.333	0.333	0.333	0.333	6.327	1.7316	3.7351	15	68	0.685115008862681	1	0
"69"	15	30	1	-2	-2	1	6	-1	1	1.717	-5.8667	-2.1283	-11.366	-2.3373	-4.3023	1.0557	3.6164	6.2335	-0.603	7.6974	-1.8891	-11.3802	2.1024	-2.2362	-3.2909	-0.2118	-6.6937	-2.2204	-1.094	-5.5772	0.333	0.333	0.333	0.333	0.333	0.333	0.333	0.333	0.333	0.333	0.333	0.333	0.333	0.333	0.333	0.333	0.333	0.333	0.333	6.327	1.6101	3.3341	15	69	0.540578581915338	0	1
"70"	15	11	1	0	0	0	16	-1	0	5.333	4.3286	0.8796	-2.8985	6.6071	-0.6782	5.2049	-0.9253	-6.2465	6.9783	-11.9765	-0.8078	-7.3318	0.4373	2.7189	-3.4317	4.0243	2.0443	7.076	-0.645	-3.9345	0.2584	0.3967	0.3117	0.3708	0.4918	0.2058	0.2527	0.3895	0.261	0.2329	0.3112	0.4212	0.527	0.2361	0.3374	0.3813	0.2186	0.2757	0.4405	6.3204	1.5365	6.8832	15	70	1.67391393161847	0	1
"71"	15	24	2	-1	-1	0	5	-1	1	1.836	-0.084	2.3624	-1.4244	-7.4325	2.2736	-1.1028	6.3615	-2.7631	5.1434	-4.4975	-5.5582	5.9625	2.1317	-8.6157	3.2989	-9.2132	1.9036	-3.8207	2.5262	-9.0804	0.429	0.3306	0.3573	0.4166	0.4515	0.2368	0.2785	0.4168	0.2332	0.3814	0.3441	0.4103	0.2015	0.2911	0.2498	0.2064	0.3482	0.2529	0.4899	6.3261	1.5575	3.4034	15	71	0.607589292198299	0	1
"72"	15	54	2	1	1	0	15	-1	0	4.515	5.8973	-2.1203	9.0033	7.4571	-0.3615	-2.3048	-4.4708	4.4305	4.425	5.6256	-4.956	2.9416	-3.2038	-5.0553	-1.7517	0.034	0.4151	-4.8712	10.9051	-1.2197	0.4064	0.27	0.4685	0.2619	0.291	0.3868	0.2226	0.2516	0.3238	0.3745	0.2459	0.4338	0.2827	0.2195	0.5299	0.2054	0.5174	0.2389	0.393	6.3237	1.7282	6.2487	15	72	1.50740518686895	0	1
"73"	15	31	2	-1	-1	1	4	-1	1	1.294	-0.7914	-3.1202	-4.3475	2.8943	-2.6042	-6.7954	2.3762	-10.7855	8.2334	-0.1356	5.556	6.9466	-0.91	-6.1692	-4.1796	-7.1609	2.6702	2.2889	2.3582	-5.0033	0.333	0.333	0.333	0.333	0.333	0.333	0.333	0.333	0.333	0.333	0.333	0.333	0.333	0.333	0.333	0.333	0.333	0.333	0.333	6.327	1.6395	2.9447	15	73	0.257738196078709	0	1
"74"	15	53	2	0	0	0	9	1	1	2.645	-2.0173	-4.5673	6.2401	-8.8011	-2.8096	-0.0448	1.4932	-2.3854	-3.4869	-1.5536	7.1527	4.4221	6.003	-6.4065	4.4448	3.9054	-5.5863	4.9937	4.5116	-5.489	0.3044	0.2307	0.3809	0.3151	0.2532	0.3269	0.2342	0.3494	0.2575	0.3486	0.5134	0.4286	0.2656	0.3696	0.2402	0.3068	0.4742	0.2054	0.5201	6.3246	1.4766	4.1295	15	74	0.972671065310263	1	0
"75"	15	4	2	0	0	1	4	-1	1	1.112	4.7159	5.4543	3.1383	-3.9444	-0.345	-1.2895	-3.2253	-3.1552	-1.553	-10.1905	9.7766	-1.4171	-6.4007	0.525	6.6712	-2.6896	5.9248	-3.7547	5.4895	-1.7358	0.333	0.333	0.333	0.333	0.333	0.333	0.333	0.333	0.333	0.333	0.333	0.333	0.333	0.333	0.333	0.333	0.333	0.333	0.333	6.327	1.6399	2.7627	15	75	0.106160195828391	0	1
"76"	15	68	2	1	1	0	9	1	1	2.447	5.3837	-2.0657	4.6827	5.3465	5.1165	1.9362	1.4946	-3.5882	4.1923	-8.8243	-1.4516	6.9133	5.1154	0.4975	-2.9562	3.3763	-6.2762	-0.5807	9.1827	-6.9567	0.4471	0.2241	0.2996	0.215	0.2586	0.2172	0.2828	0.3614	0.4473	0.2629	0.5056	0.2973	0.226	0.4092	0.4597	0.5155	0.2912	0.3495	0.2541	6.3241	1.7294	4.1983	15	76	0.894862784460535	1	0
"77"	15	16	2	-2	-2	1	4	1	0	1.268	2.4064	9.464	5.1604	-7.6954	0.0223	-2.2113	-2.6235	-3.4021	-3.3005	-3.303	-1.0239	-10.0291	-8.6342	3.7797	-1.0287	-6.0383	-5.9709	-6.3616	3.7324	-1.3643	0.333	0.333	0.333	0.333	0.333	0.333	0.333	0.333	0.333	0.333	0.333	0.333	0.333	0.333	0.333	0.333	0.333	0.333	0.333	6.327	1.7009	2.9855	15	77	0.237440856015034	1	0
"78"	15	33	2	1	1	1	5	-1	0	1.603	0.9927	6.0297	-7.7175	2.1128	1.5381	8.8067	0.9219	8.788	3.6147	0.4232	-1.1228	-8.1935	8.9782	-3.528	0.7365	-0.0576	0.0436	3.7056	-5.9709	0.1576	0.333	0.333	0.333	0.333	0.333	0.333	0.333	0.333	0.333	0.333	0.333	0.333	0.333	0.333	0.333	0.333	0.333	0.333	0.333	6.327	1.5627	3.1869	15	78	0.471876873627416	0	1
"79"	15	27	2	2	2	0	12	-1	0	3.823	0.3078	12.1549	-4.6432	5.359	1.8063	3.0752	-0.8631	-4.2207	-2.9007	7.3931	-0.231	3.885	-7.3299	8.6699	1.9123	-1.3512	-0.1541	5.7404	8.1359	4.8662	0.3348	0.2013	0.516	0.2712	0.3067	0.4874	0.2177	0.3379	0.2904	0.4577	0.2391	0.3305	0.2683	0.3017	0.3621	0.2601	0.4588	0.4025	0.2747	6.319	1.4237	5.2569	15	79	1.34103545471428	0	1
"80"	15	26	2	1	1	0	11	-1	0	3.815	-0.1522	4.0043	6.9445	1.3054	-5.3008	-6.3975	-3.2176	0.7991	6.0219	-2.3264	2.8323	4.5889	-6.8218	-0.1062	4.5348	12.9865	-4.6958	1.7232	0.077	4.659	0.3935	0.2852	0.4262	0.3005	0.4747	0.2565	0.2246	0.4157	0.4571	0.4927	0.3723	0.5089	0.236	0.2082	0.239	0.3357	0.2214	0.2525	0.2186	6.3191	1.5356	5.3654	15	80	1.33894066473642	0	1
"81"	15	15	2	-4	-4	1	6	-1	1	1.726	-3.7326	-1.4204	-2.6747	-4.2737	-1.9145	-12.7856	-4.2665	-8.1855	2.3013	-3.1801	-2.0326	-5.8961	-13.1419	-11.8317	-6.1172	1.9149	-5.2698	-4.9152	4.9865	2.1583	0.333	0.333	0.333	0.333	0.333	0.333	0.333	0.333	0.333	0.333	0.333	0.333	0.333	0.333	0.333	0.333	0.333	0.333	0.333	6.327	1.414	3.1433	15	81	0.545806592661236	0	1
"82"	15	55	2	2	2	0	10	1	1	3.409	3.4373	-8.1548	8.2018	-4.2625	-2.7498	0.2761	3.5301	-2.316	8.0483	3.8756	-4.6238	-3.948	5.3334	6.9955	0.3428	5.8467	5.7232	8.7763	4.3808	0.5601	0.4312	0.2751	0.2328	0.2034	0.5304	0.2212	0.2884	0.41	0.362	0.5146	0.2039	0.386	0.2014	0.4028	0.4695	0.2728	0.4583	0.2494	0.2111	6.3242	1.4253	4.8431	15	82	1.22641899315577	1	0
"83"	15	67	2	0	0	0	16	-1	0	5.146	3.4028	-5.3172	4.392	-7.14	-4.8019	-7.5309	-6.8701	8.8566	0.5328	-0.6785	0.2747	0.2218	2.7523	1.2226	-1.9371	2.1933	11.3523	-1.5625	4.4851	-2.6219	0.2005	0.2975	0.2634	0.2891	0.2371	0.4655	0.228	0.5328	0.213	0.389	0.4285	0.2478	0.3272	0.2765	0.5184	0.2375	0.3641	0.4813	0.3349	6.3322	1.6047	6.7639	15	83	1.63821971385955	0	1
"84"	15	64	2	-4	-4	0	8	-1	1	2.666	-0.8239	2.666	-1.5779	-7.5174	1.222	-8.1008	-11.4116	-4.0911	-4.6316	-1.6833	-4.6369	-3.1681	-18.2701	0.0323	-7.9661	-7.494	3.2968	-2.2709	-3.0263	-2.5464	0.4039	0.2343	0.2666	0.3733	0.4272	0.3947	0.4398	0.5009	0.4153	0.3022	0.3637	0.2194	0.2699	0.3112	0.2209	0.4729	0.2122	0.294	0.2041	6.3266	1.6312	4.3003	15	84	0.980579221756517	0	1
"85"	15	35	2	4	4	1	8	1	1	2.573	8.4269	-0.4171	-1.1598	9.3244	6.8753	10.5796	10.6887	3.2598	7.562	5.7917	1.4573	7.9368	0.543	9.8114	0.2147	7.3853	-2.4353	-2.116	-3.2963	-0.9406	0.333	0.333	0.333	0.333	0.333	0.333	0.333	0.333	0.333	0.333	0.333	0.333	0.333	0.333	0.333	0.333	0.333	0.333	0.333	6.327	1.5758	4.157	15	85	0.945072533299607	1	0
"86"	15	2	2	-2	-2	1	5	-1	1	1.391	-6.8255	-1.1546	-9.3159	7.3295	-5.9752	2.3895	-5.2687	-6.6498	-4.9619	1.2086	-3.7577	7.0566	-3.5452	-10.1702	2.1718	-2.6428	1.7962	-1.8314	-3.0351	3.9847	0.333	0.333	0.333	0.333	0.333	0.333	0.333	0.333	0.333	0.333	0.333	0.333	0.333	0.333	0.333	0.333	0.333	0.333	0.333	6.327	1.5707	2.9749	15	86	0.330022912941306	0	1
"87"	15	57	2	-4	-4	1	6	-1	1	1.874	-1.0967	-1.9079	5.56	-5.2034	-10.0038	-2.0447	-3.8847	-4.5365	-5.3494	0.7976	1.0214	-14.1148	-13.0708	-4.8507	-1.9656	-8.9613	-5.2728	2.7013	-0.8014	-6.0549	0.333	0.333	0.333	0.333	0.333	0.333	0.333	0.333	0.333	0.333	0.333	0.333	0.333	0.333	0.333	0.333	0.333	0.333	0.333	6.327	1.7186	3.6083	15	87	0.628075183816231	0	1
"88"	15	48	2	2	2	1	5	1	1	1.558	-0.4424	7.5963	11.3169	1.0827	-4.2974	8.3266	-3.3332	-4.7563	2.0782	4.9121	0.7172	-1.9406	2.7762	4.3709	-2.884	8.2068	-4.7036	0.5307	8.4892	0.143	0.333	0.333	0.333	0.333	0.333	0.333	0.333	0.333	0.333	0.333	0.333	0.333	0.333	0.333	0.333	0.333	0.333	0.333	0.333	6.327	1.4841	3.059	15	88	0.443402947448557	1	0
"89"	15	39	2	0	0	0	18	1	0	5.86	-1.0922	-3.5599	-3.4642	1.1604	-1.9668	0.4394	7.8474	-8.4505	0.0232	6.2797	6.3837	-7.9422	0.064	0.9936	-0.5699	2.9772	-1.2302	-5.0419	-2.8764	10.1717	0.3656	0.284	0.2146	0.4451	0.2406	0.4268	0.2551	0.3098	0.354	0.2146	0.433	0.3607	0.2998	0.3576	0.4068	0.3183	0.4364	0.2236	0.3768	6.3232	1.441	7.3106	15	89	1.76814960358892	1	0
"90"	15	42	2	4	4	0	6	1	1	1.591	3.4013	8.0356	2.2498	7.2633	-0.0723	6.7525	8.4623	0.9047	15.5591	4.9861	1.6916	-7.4359	5.7854	7.5335	-1.4473	2.1258	6.3385	-1.7656	2.7637	7.585	0.2336	0.5079	0.2072	0.2545	0.2005	0.2354	0.2711	0.4637	0.4953	0.4489	0.2168	0.301	0.2449	0.4994	0.4107	0.3158	0.4234	0.2542	0.3492	6.3334	1.5293	3.125	15	90	0.46436274935565	1	0
"91"	15	50	2	-4	-4	0	4	-1	1	1.149	-5.7496	-13.7368	-8.1453	-5.1468	0.1258	-3.4781	-5.7111	2.4694	-8.3417	2.1178	-2.9127	-5.0981	5.0748	-4.6334	-3.7591	-13.5926	-0.7823	-8.7225	-0.1022	1.1688	0.227	0.4505	0.3396	0.4883	0.335	0.5305	0.2008	0.4988	0.3213	0.2193	0.2592	0.3034	0.2381	0.4774	0.4142	0.2316	0.3322	0.201	0.2617	6.3297	1.4326	2.5993	15	91	0.138891998866619	0	1
"92"	15	45	2	-1	-1	1	9	-1	1	2.942	-4.4486	11.6137	-3.135	0.7505	3.2354	-10.3241	-4.3297	-0.1418	3.5511	-5.2879	-6.0978	-1.8733	4.1951	0.1533	0.8713	1.9186	1.8097	-7.5664	-4.1519	-1.7179	0.333	0.333	0.333	0.333	0.333	0.333	0.333	0.333	0.333	0.333	0.333	0.333	0.333	0.333	0.333	0.333	0.333	0.333	0.333	6.327	1.4692	4.4263	15	92	1.07908962217925	0	1
"93"	15	46	2	0	0	1	17	1	1	5.582	2.5481	4.2857	-5.7442	5.0386	-3.0294	-3.2293	0.5194	1.8503	-6.1724	4.9439	-1.4818	-1.9357	-3.0745	7.2899	-1.5183	-8.1492	2.8999	0.392	-6.2816	10.8681	0.333	0.333	0.333	0.333	0.333	0.333	0.333	0.333	0.333	0.333	0.333	0.333	0.333	0.333	0.333	0.333	0.333	0.333	0.333	6.327	1.5649	7.1493	15	93	1.71954713511413	1	0
"94"	15	13	2	2	2	0	8	-1	0	2.654	-1.9782	1.4491	-2.3767	4.1379	2.1857	4.4409	4.5133	2.4591	-1.0252	7.0607	-0.1661	7.194	-3.8851	11.2398	-5.7347	-4.3951	7.0832	-5.5061	10.3024	1.1839	0.4681	0.2977	0.2116	0.3023	0.341	0.4501	0.2475	0.3725	0.4286	0.335	0.4779	0.4258	0.2532	0.3226	0.352	0.2017	0.3576	0.2193	0.2583	6.3228	1.5683	4.2209	15	94	0.976067935910016	0	1
"95"	15	25	2	0	0	0	13	1	1	3.985	-0.8994	-1.1649	7.9742	7.6336	-3.3321	-3.5909	4.2272	-0.9114	-1.1201	5.4981	-1.0751	-5.4771	-4.1039	0.7249	-2.7229	4.7177	-7.1124	9.3515	1.17	-8.5944	0.1998	0.3084	0.489	0.2466	0.418	0.3047	0.2223	0.4624	0.3884	0.305	0.2141	0.2614	0.3356	0.4672	0.4304	0.2089	0.287	0.3228	0.4598	6.3318	1.5545	5.5358	15	95	1.38253731224218	1	0
"96"	15	20	2	2	2	1	8	1	1	2.426	3.1353	-1.8721	-6.1043	7.633	13.6018	2.619	1.6333	7.1581	7.0821	2.951	6.0852	2.1954	-0.0821	-3.7774	2.6875	-7.9141	-0.7648	1.4331	-0.2078	2.6952	0.333	0.333	0.333	0.333	0.333	0.333	0.333	0.333	0.333	0.333	0.333	0.333	0.333	0.333	0.333	0.333	0.333	0.333	0.333	6.327	1.6104	4.0436	15	96	0.886243810521858	1	0
"97"	15	58	2	-2	-2	1	7	1	0	2.052	1.2255	-0.4518	7.0255	-7.3721	-0.8671	-7.6243	-3.6816	1.9011	0.8671	-8.032	-3.2466	-0.0274	-0.922	8.8872	-0.7744	-9.9836	-2.6423	-8.3839	-5.1812	-1.2397	0.333	0.333	0.333	0.333	0.333	0.333	0.333	0.333	0.333	0.333	0.333	0.333	0.333	0.333	0.333	0.333	0.333	0.333	0.333	6.327	1.4229	3.486	15	97	0.718814927308523	1	0
"98"	15	66	2	-1	-1	0	13	-1	1	4.119	0.1891	-7.921	5.0843	-3.0815	-2.3337	-4.5964	-1.497	1.1278	-10.4822	-5.1047	-7.05	-4.3063	6.5077	5.9708	-6.8984	-0.2896	2.1792	3.3532	5.3998	2.9667	0.2617	0.34	0.4284	0.2163	0.2958	0.2609	0.2032	0.4172	0.2758	0.3189	0.4911	0.4027	0.2149	0.2425	0.3563	0.31	0.3709	0.5303	0.3914	6.3282	1.4469	5.5867	15	98	1.41561041545394	0	1
"99"	15	14	2	4	4	0	13	1	1	3.835	0.9656	1.0783	5.7394	1.0337	1.5475	8.575	-3.6214	8.6455	2.6426	1.6853	2.7659	4.7796	-2.9663	-2.2207	12.1086	11.5394	0.979	13.045	7.2087	5.6371	0.426	0.2905	0.3305	0.2941	0.2327	0.3088	0.401	0.2393	0.2893	0.4735	0.256	0.2242	0.3732	0.3336	0.4455	0.2465	0.3152	0.4947	0.3479	6.3228	1.633	5.486	15	99	1.34416943481922	1	0
"100"	15	3	2	-1	-1	1	8	-1	1	2.515	2.6461	-5.1823	-1.5448	-0.6922	-6.5839	4.093	5.7891	-1.7913	-5.809	9.238	6.9888	4.7206	-1.1298	-0.2635	-3.6124	-8.0961	-2.3676	-7.4811	-4.7921	-3.1958	0.333	0.333	0.333	0.333	0.333	0.333	0.333	0.333	0.333	0.333	0.333	0.333	0.333	0.333	0.333	0.333	0.333	0.333	0.333	6.327	1.6059	4.1328	15	100	0.922272803551703	0	1
"101"	15	18	2	0	0	1	13	-1	1	4.097	2.3158	-2.6426	2.5844	-12.9587	-0.095	1.4699	-2.3814	4.3979	5.1429	-3.9318	-2.4586	1.0433	1.0306	7.3236	9.0949	-5.0202	-4.2581	-1.9036	2.1984	-2.4104	0.333	0.333	0.333	0.333	0.333	0.333	0.333	0.333	0.333	0.333	0.333	0.333	0.333	0.333	0.333	0.333	0.333	0.333	0.333	6.327	1.4946	5.5978	15	101	1.41025499856473	0	1
"102"	15	12	2	1	1	0	7	-1	0	2.177	0.0294	1.432	4.0265	11.3151	6.6728	5.0707	-1.5517	-6.4821	3.4967	4.7234	8.2424	-2.6808	-1.4196	0.7722	0.8242	-1.4382	-3.964	0.6601	1.3094	-9.9489	0.405	0.3508	0.2895	0.505	0.3838	0.2118	0.4808	0.3881	0.2679	0.3822	0.3161	0.3603	0.2505	0.2125	0.2691	0.3721	0.3296	0.2503	0.3036	6.329	1.5755	3.7609	15	102	0.77794778225241	0	1
"103"	15	11	2	0	0	0	7	-1	1	2.074	-0.6965	0.7125	-11.8178	1.1493	6.6331	0.5868	5.2758	-10.29	-0.1175	-1.8786	2.8056	7.2336	-3.2408	-2.2944	6.6667	4.1819	0.8083	-2.8781	0.0304	-2.4186	0.2355	0.2637	0.357	0.2447	0.296	0.4035	0.3146	0.5119	0.3352	0.3795	0.4514	0.3822	0.2426	0.3478	0.2523	0.4381	0.2252	0.4135	0.238	6.3327	1.6565	3.7418	15	103	0.729479109807336	0	1
"104"	15	69	2	2	2	0	13	1	1	4.276	6.5395	6.4984	-8.1054	7.6281	5.6037	6.6429	3.221	4.5184	0.0339	3.3834	-0.0889	-3.1623	-4.8655	7.0211	4.6148	4.4792	4.7801	-3.1187	-7.8499	2.3112	0.3901	0.2098	0.2352	0.3749	0.415	0.254	0.4335	0.2523	0.4121	0.3221	0.2734	0.213	0.5161	0.2197	0.3864	0.2348	0.4373	0.4776	0.2675	6.3249	1.4205	5.7104	15	104	1.4530179931628	1	0
"105"	15	63	2	4	4	1	9	-1	0	2.861	-0.2251	6.7068	2.0116	4.7062	10.6721	-1.6922	6.1559	4.2476	11.2915	6.6734	3.7372	-1.2766	-1.1039	3.0999	-1.3902	-1.3062	5.9833	17.8807	2.4239	0.7796	0.333	0.333	0.333	0.333	0.333	0.333	0.333	0.333	0.333	0.333	0.333	0.333	0.333	0.333	0.333	0.333	0.333	0.333	0.333	6.327	1.6066	4.4781	15	105	1.05117121406797	0	1
"106"	15	6	2	2	2	1	13	1	1	4.204	2.9018	9.2378	7.546	-5.136	-3.7502	9.045	3.8654	-0.9743	3.3744	4.2466	0.4054	-1.2352	4.3242	-8.012	9.7009	-1.6288	-4.5821	4.1008	0.3084	5.1155	0.333	0.333	0.333	0.333	0.333	0.333	0.333	0.333	0.333	0.333	0.333	0.333	0.333	0.333	0.333	0.333	0.333	0.333	0.333	6.327	1.5669	5.7716	15	106	1.4360364530147	1	0
"107"	15	40	2	1	1	0	6	-1	0	1.985	0.3618	1.3611	-10.1757	6.9887	0.2547	6.692	3.6031	-1.6403	2.3999	4.8471	8.0037	5.9253	0.3993	-5.4061	-4.6081	-5.355	6.188	-0.1594	-2.5096	3.2748	0.3667	0.2778	0.3951	0.4823	0.2095	0.3203	0.4594	0.2086	0.3264	0.5258	0.2302	0.4036	0.2646	0.2306	0.3453	0.2283	0.2617	0.316	0.4843	6.3365	1.7142	3.7189	15	107	0.685618914139154	0	1
"108"	15	7	2	4	4	1	4	1	1	1.263	5.8283	2.0323	-1.6241	-1.4224	11.0572	8.566	4.587	14.2999	8.3392	3.2516	-3.5632	2.5123	-1.4466	1.0764	1.9906	6.3279	-2.041	3.167	11.3177	5.8845	0.333	0.333	0.333	0.333	0.333	0.333	0.333	0.333	0.333	0.333	0.333	0.333	0.333	0.333	0.333	0.333	0.333	0.333	0.333	6.327	1.4065	2.6808	15	108	0.233489843368354	1	0
"109"	15	8	2	-4	-4	0	4	-1	1	1.247	-4.3364	-6.2605	-10.2895	-6.6134	-1.3127	-6.8069	-2.421	-16.5479	-8.5919	3.3228	-0.0211	-6.5704	1.5644	-5.6572	2.5059	-2.3342	-0.2254	-8.7699	1.6136	-2.4497	0.4369	0.2652	0.416	0.3126	0.2476	0.501	0.2762	0.4274	0.2649	0.3854	0.452	0.3208	0.3863	0.2196	0.2985	0.2295	0.3794	0.2791	0.2306	6.3289	1.6034	2.8645	15	109	0.220740666697899	0	1
"110"	15	60	2	0	0	1	4	-1	1	1.277	-2.1487	2.9429	-7.8303	3.73	2.789	4.1587	-8.7653	-4.6512	1.5646	-5.074	-9.3182	3.9544	-0.7863	4.795	-1.3087	1.2542	0.4074	-1.8379	5.5349	9.0147	0.333	0.333	0.333	0.333	0.333	0.333	0.333	0.333	0.333	0.333	0.333	0.333	0.333	0.333	0.333	0.333	0.333	0.333	0.333	6.327	1.555	2.8442	15	110	0.244513577050402	0	1
"111"	15	61	2	1	1	1	3	-1	0	0.989	-2.5277	10.5098	3.8633	-6.5558	1.2252	7.2157	-0.098	0.3233	1.178	7.3299	-5.033	-4.3662	0.2254	6.383	-0.5115	-3.5704	-7.161	4.5224	5.4702	0.2181	0.333	0.333	0.333	0.333	0.333	0.333	0.333	0.333	0.333	0.333	0.333	0.333	0.333	0.333	0.333	0.333	0.333	0.333	0.333	6.327	1.6786	2.6733	15	111	-0.0110609473594249	0	1
"112"	15	70	2	4	4	0	9	1	1	2.594	7.1011	4.3787	-0.987	3.5344	1.915	9.8557	4.4868	-3.2635	-2.9672	8.3808	2.7872	0.9173	10.4377	-4.8168	12.1491	4.0633	1.6837	6.8513	12.6619	2.6733	0.4631	0.2332	0.284	0.3552	0.2307	0.4142	0.2876	0.2132	0.4322	0.2437	0.4276	0.3819	0.3289	0.2202	0.4519	0.3339	0.4165	0.3436	0.2626	6.3241	1.5192	4.1286	15	112	0.953201085894252	1	0
"113"	15	56	2	4	4	0	9	1	1	2.645	0.8944	1.2856	11.5093	0.9703	6.2743	2.654	2.0606	9.6316	8.8758	5.3558	4.9962	-3.1001	-0.8125	9.2266	9.1325	2.4187	5.3532	-0.5988	10.9824	-7.1526	0.2986	0.365	0.2733	0.3049	0.2249	0.2558	0.501	0.263	0.2035	0.3409	0.4649	0.493	0.5285	0.2156	0.2855	0.3782	0.3145	0.3716	0.2437	6.3262	1.5316	4.1794	15	113	0.972671065310263	1	0
"114"	15	1	2	-4	-4	1	7	-1	1	2.017	-2.917	-1.8148	-1.1106	-7.5204	1.7721	-0.9309	-8.0849	0.7351	-11.0435	4.7114	-10.1137	-4.6266	-6.4213	6.1353	-5.819	-7.8716	-12.2279	-7.6719	-3.0709	-2.2327	0.333	0.333	0.333	0.333	0.333	0.333	0.333	0.333	0.333	0.333	0.333	0.333	0.333	0.333	0.333	0.333	0.333	0.333	0.333	6.327	1.6174	3.6511	15	114	0.701611258972075	0	1
"115"	15	30	2	-2	-2	1	4	-1	1	1.009	-5.7576	-7.9562	6.8577	-1.8621	-1.5757	-10.7178	-6.5547	-3.2355	-1.0628	-10.5153	0.5895	-2.5425	6.1826	-4.0534	1.5548	5.0084	-1.6362	-0.5734	-5.7519	2.3593	0.333	0.333	0.333	0.333	0.333	0.333	0.333	0.333	0.333	0.333	0.333	0.333	0.333	0.333	0.333	0.333	0.333	0.333	0.333	6.327	1.559	2.5767	15	115	0.0089597413714718	0	1
"116"	15	38	2	-1	-1	0	4	-1	1	1.427	0.902	-2.3793	-5.3248	-0.2516	-3.3695	-7.4732	-0.9223	3.6407	6.6956	4.9037	-3.6692	-4.4621	-7.6416	5.5973	-9.9273	-5.2236	-2.6648	5.6515	5.9219	0.2903	0.3847	0.4862	0.4096	0.3432	0.2463	0.3088	0.2228	0.2815	0.4993	0.4706	0.5206	0.3147	0.2761	0.2425	0.3392	0.2068	0.2762	0.2356	0.2615	6.3263	1.4303	2.8611	15	116	0.355574338494699	0	1
"117"	15	32	2	0	0	1	5	1	1	1.563	4.7074	-1.5558	0.4277	2.9659	-13.7172	2.0727	-0.3502	-0.1816	1.3043	-9.8241	4.0338	-1.5716	2.8706	-4.2011	0.9117	6.5924	7.3713	2.2939	-0.3064	-3.5471	0.333	0.333	0.333	0.333	0.333	0.333	0.333	0.333	0.333	0.333	0.333	0.333	0.333	0.333	0.333	0.333	0.333	0.333	0.333	6.327	1.6854	3.2471	15	117	0.44660705143934	1	0
"118"	15	37	2	-2	-2	0	15	-1	1	4.749	-0.9982	0.7643	-2.313	6.7513	4.2257	-0.9158	1.5551	-0.3899	2.4133	-7.7247	3.6864	-5.0257	-9.9111	-2.5259	-6.9687	-12.2691	3.3064	-5.5808	-3.5081	-6.5202	0.3299	0.4011	0.2621	0.229	0.4212	0.2165	0.4272	0.2123	0.2777	0.2448	0.4254	0.3055	0.3409	0.4695	0.311	0.4758	0.3392	0.3777	0.2532	6.3201	1.4026	6.1498	15	118	1.55793406956698	0	1
"119"	15	9	2	-2	-2	0	5	-1	1	1.175	-2.7431	-9.3847	-5.2378	7.1088	-6.106	3.7663	-1.3001	-1.0019	-2.8336	0.2819	8.1081	-6.3917	2.7379	-9.5344	-9.1996	-0.1236	-1.9743	-5.5631	0.3531	-2.6511	0.2761	0.2187	0.3203	0.2843	0.2387	0.4568	0.3627	0.207	0.4759	0.3102	0.4897	0.3777	0.4084	0.2013	0.3632	0.3277	0.3679	0.2092	0.4252	6.3209	1.7115	2.892	15	119	0.161268147596122	0	1
"120"	15	41	2	2	2	0	6	1	1	1.972	1.5618	1.1716	1.5391	-1.9416	3.0712	13.4791	-1.5773	8.0471	2.6047	0.9345	-2.8979	13.1934	-3.3956	2.0069	-5.7841	-1.3555	-0.7242	5.2653	-0.1737	3.45	0.2418	0.379	0.2315	0.3286	0.4344	0.5198	0.2876	0.3618	0.2044	0.4038	0.2907	0.3194	0.2508	0.4057	0.3069	0.2649	0.4603	0.4119	0.2331	6.3363	1.6739	3.6395	15	120	0.679048256180444	1	0
"121"	15	49	2	4	4	1	4	1	1	1.028	7.5294	5.9339	4.8033	1.7987	-0.1842	6.5202	3.7316	3.6494	-3.3277	9.4797	3.2235	1.5626	-1.749	6.5797	0.7079	-7.1461	12.6995	11.1183	8.3044	5.094	0.333	0.333	0.333	0.333	0.333	0.333	0.333	0.333	0.333	0.333	0.333	0.333	0.333	0.333	0.333	0.333	0.333	0.333	0.333	6.327	1.7	2.7452	15	121	0.0276151670329734	1	0
"122"	15	21	2	4	4	1	5	1	1	1.368	-0.234	0.8073	5.8192	2.9055	7.2421	-0.2338	-0.8619	0.8874	4.8089	3.1301	4.2783	0.0327	11.8659	-3.8527	3.3384	14.9019	4.0338	12.2038	0.2858	8.7021	0.333	0.333	0.333	0.333	0.333	0.333	0.333	0.333	0.333	0.333	0.333	0.333	0.333	0.333	0.333	0.333	0.333	0.333	0.333	6.327	1.4504	2.8357	15	122	0.313349819200359	1	0
"123"	15	43	2	-4	-4	1	3	-1	1	0.883	-7.5633	-14.644	-3.1392	-1.27	-1.3416	0.961	0.5637	-3.2167	-8.8631	-12.8481	4.6712	-3.2324	-4.4521	-0.3462	-4.0733	-6.1134	1.7068	-8.3249	-7.4645	0.5775	0.333	0.333	0.333	0.333	0.333	0.333	0.333	0.333	0.333	0.333	0.333	0.333	0.333	0.333	0.333	0.333	0.333	0.333	0.333	6.327	1.6342	2.5343	15	123	-0.124430078378177	0	1
"124"	15	65	2	-2	-2	0	5	-1	1	1.641	-0.3261	-1.4378	-4.3411	-3.9833	-3.9095	-3.368	-4.9078	-1.9937	-7.9298	-8.0911	-6.2427	5.5082	-6.8817	2.8016	-0.5105	-5.8909	-6.8791	5.7854	2.271	8.8122	0.4123	0.2301	0.5018	0.2013	0.3864	0.5099	0.2328	0.3762	0.3399	0.3028	0.2522	0.2861	0.391	0.233	0.3893	0.2886	0.2109	0.4777	0.2952	6.3175	1.4734	3.1247	15	124	0.495305812107954	0	1
"125"	15	10	2	-1	-1	0	9	-1	1	3.198	-0.1859	-1.9326	6.862	-7.7927	1.3693	-9.6368	-1.8003	-1.0949	-4.5456	0.722	-6.8439	-7.6198	-0.8655	9.4831	-0.5342	-7.0484	3.9935	-0.6225	4.2582	2.1569	0.2853	0.5204	0.3496	0.2667	0.5024	0.4252	0.3531	0.3236	0.4043	0.3239	0.462	0.3129	0.2543	0.2101	0.2683	0.2311	0.354	0.2095	0.2765	6.3332	1.6971	4.8982	15	125	1.16252561441176	0	1
"126"	15	29	2	-4	-4	1	4	-1	1	1.135	-3.2533	-5.2058	3.1773	-9.4318	2.7901	-9.7844	-11.1228	-13.2918	-8.726	-1.3039	-3.5597	-6.9018	-1.1498	-4.1623	2.5467	3.0867	-5.3213	-7.6218	0.55	-1.3289	0.333	0.333	0.333	0.333	0.333	0.333	0.333	0.333	0.333	0.333	0.333	0.333	0.333	0.333	0.333	0.333	0.333	0.333	0.333	6.327	1.5205	2.6693	15	126	0.126632650933366	0	1
"127"	15	62	2	2	2	1	7	-1	0	2.198	4.4907	0.881	-4.1308	-1.8123	-2.8312	0.2896	4.8521	5.7466	0.6569	0.1517	-0.3533	-3.4591	-0.925	13.0927	0.6353	5.143	3.9565	15.0134	0.4212	-1.0125	0.333	0.333	0.333	0.333	0.333	0.333	0.333	0.333	0.333	0.333	0.333	0.333	0.333	0.333	0.333	0.333	0.333	0.333	0.333	6.327	1.57	3.7822	15	127	0.78754785598143	0	1
"128"	15	34	2	2	2	1	8	1	1	2.407	0.5974	-0.8349	0.7948	3.6344	2.7786	1.7363	-1.6613	5.2208	-5.7949	2.2932	1.8605	-1.8969	-4.8927	2.9362	7.9833	13.5104	-2.1192	-2.4916	11.6965	3.9582	0.333	0.333	0.333	0.333	0.333	0.333	0.333	0.333	0.333	0.333	0.333	0.333	0.333	0.333	0.333	0.333	0.333	0.333	0.333	6.327	1.6439	4.0582	15	128	0.878381158800935	1	0
"129"	15	22	2	-4	-4	0	3	-1	1	0.982	-8.9476	-2.7884	-6.3935	1.3159	3.9754	-2.4935	-11.1276	4.2231	-8.5387	-5.8215	1.6043	-0.5261	3.5517	-5.0332	-9.3889	-4.5372	-7.9178	-9.4838	-3.1546	-9.5645	0.4001	0.3024	0.5114	0.3983	0.347	0.515	0.4039	0.2033	0.2884	0.23	0.3026	0.1999	0.3496	0.2183	0.4727	0.2641	0.4421	0.2209	0.2513	6.3213	1.535	2.5161	15	129	-0.0181639706276712	0	1
"130"	15	5	2	1	1	1	11	-1	0	3.626	-1.8783	11.9765	6.3081	-1.7832	4.4814	0.3069	-4.1663	3.9236	0.4226	2.0302	-2.075	-8.3678	3.4522	2.5629	-4.6695	-0.5076	6.0026	2.7696	6.1431	-6.2896	0.333	0.333	0.333	0.333	0.333	0.333	0.333	0.333	0.333	0.333	0.333	0.333	0.333	0.333	0.333	0.333	0.333	0.333	0.333	6.327	1.644	5.2763	15	130	1.28813011233266	0	1
"131"	15	36	2	-4	-4	0	13	1	0	4.267	-3.1611	-4.7255	0.3751	-7.4095	-12.4232	-3.5728	3.9209	-0.1776	-4.6572	-4.0996	0.4955	-3.2745	-5.423	-6.1643	-7.0306	-0.3399	-6.0348	-5.5927	-16.1762	6.3644	0.3704	0.4712	0.2365	0.2642	0.5116	0.2368	0.2844	0.2282	0.3505	0.3187	0.4041	0.247	0.3588	0.2086	0.3021	0.4122	0.3844	0.2658	0.4644	6.3201	1.5382	5.8008	15	131	1.45091100420586	1	0
"132"	15	51	2	-2	-2	0	6	-1	1	1.694	-4.1598	2.3279	-4.0635	-11.5524	-2.2508	-0.4023	-11.1329	-1.5632	-1.9622	-8.201	-4.0404	4.655	0.0483	1.8212	-0.1724	-8.9137	0.9722	1.1189	6.8412	2.002	0.3035	0.4817	0.2043	0.3364	0.2509	0.4587	0.4209	0.2588	0.3192	0.2902	0.3312	0.2986	0.2451	0.4267	0.4916	0.2234	0.3539	0.2502	0.3863	6.3317	1.6461	3.3449	15	132	0.527092596229863	0	1
"133"	15	59	2	-1	-1	1	15	-1	1	4.878	-3.0817	8.2393	0.8956	-1.5934	-5.7074	-1.255	5.4473	-5.7986	0.9401	0.4896	5.8446	5.0515	-2.4701	-2.957	-0.675	-0.7499	2.6467	-8.4199	-9.0727	-8.2966	0.333	0.333	0.333	0.333	0.333	0.333	0.333	0.333	0.333	0.333	0.333	0.333	0.333	0.333	0.333	0.333	0.333	0.333	0.333	6.327	1.5019	6.3957	15	133	1.58473529979373	0	1
"134"	15	19	2	1	1	1	4	1	1	1.272	1.878	7.5278	2.808	-6.5933	-8.3706	4.2298	-0.7238	8.3631	4.4267	-7.1003	0.0623	1.3141	-4.4611	-0.5359	0.3346	-3.5552	0.3226	3.6763	7.2042	8.4304	0.333	0.333	0.333	0.333	0.333	0.333	0.333	0.333	0.333	0.333	0.333	0.333	0.333	0.333	0.333	0.333	0.333	0.333	0.333	6.327	1.7324	3.0227	15	134	0.24059046491793	1	0
"135"	15	52	2	-1	-1	0	10	-1	1	3.252	2.7603	-5.013	7.8611	-9.5362	0.3515	-9.9958	-7.0027	-2.0441	-1.0183	-5.5566	0.1626	-1.4	4.4701	-0.9721	3.6295	3.8085	5.3913	0.4289	-4.4613	-3.2182	0.2563	0.2171	0.3749	0.4354	0.4044	0.3767	0.5002	0.2001	0.227	0.37	0.4976	0.4692	0.2063	0.3058	0.372	0.2485	0.3826	0.2236	0.2517	6.3195	1.681	4.9525	15	135	1.17927019168556	0	1
"136"	15	47	2	1	1	1	11	-1	0	3.424	-2.0927	-3.6576	1.5172	1.418	-0.5929	2.1022	-2.4455	9.5351	7.927	-4.0435	-0.8752	11.5952	-1.4503	-2.5972	5.0958	2.8116	6.4829	-8.0178	-2.0524	-1.0576	0.333	0.333	0.333	0.333	0.333	0.333	0.333	0.333	0.333	0.333	0.333	0.333	0.333	0.333	0.333	0.333	0.333	0.333	0.333	6.327	1.5866	5.0247	15	136	1.2308094582795	0	1
"137"	15	44	2	-2	-2	1	7	-1	1	2.135	-3.9872	-3.4837	-1.9884	-2.3307	-2.7299	-5.6081	-1.9647	-6.1882	-11.2548	6.2039	5.6784	9.409	-4.2698	-7.7647	3.763	-3.6749	-0.4207	-5.6062	-2.7925	0.5972	0.333	0.333	0.333	0.333	0.333	0.333	0.333	0.333	0.333	0.333	0.333	0.333	0.333	0.333	0.333	0.333	0.333	0.333	0.333	6.327	1.5204	3.6688	15	137	0.758466646680588	0	1
"138"	15	17	2	-1	-1	1	9	1	0	2.673	1.3598	5.2984	1.7458	-1.7974	1.8394	4.9125	-5.8398	-3.164	-2.4002	1.8336	-0.224	-2.4265	3.8669	-8.7966	0.3917	3.3051	-10.5789	4.0262	-11.0319	-1.6364	0.333	0.333	0.333	0.333	0.333	0.333	0.333	0.333	0.333	0.333	0.333	0.333	0.333	0.333	0.333	0.333	0.333	0.333	0.333	6.327	1.5045	4.1903	15	138	0.983201437156782	1	0
"139"	15	28	2	4	4	0	6	1	1	1.711	2.269	7.0602	4.4194	-2.63	12.6986	0.6743	4.7417	0.6129	2.9198	12.6797	3.0037	1.9731	16.8344	0.3624	6.2171	0.3099	3.5929	2.9622	-1.0607	1.9622	0.2654	0.2049	0.3576	0.2096	0.3913	0.3327	0.3794	0.2135	0.3123	0.3387	0.5299	0.2633	0.289	0.2102	0.4821	0.3921	0.2432	0.4918	0.4158	6.3231	1.5857	3.3119	15	139	0.537077994910056	1	0
"140"	15	23	2	-2	-2	0	20	-1	1	7.559	0.1408	-0.1296	0.5518	-7.9661	-0.73	-3.2434	-0.6292	-2.0446	2.8306	-2.2243	5.2548	-1.0096	0.8696	-1.3731	-12.7189	-13.1776	5.0948	0.2413	-1.492	-7.3075	0.2768	0.4917	0.4255	0.39	0.2289	0.3329	0.2327	0.2578	0.3823	0.2779	0.201	0.4182	0.2053	0.3277	0.27	0.3697	0.3049	0.432	0.4964	6.3217	1.5349	9.0933	15	140	2.02273890631004	0	1
"141"	15	13	3	2	2	0	12	1	1	4.004	5.8058	13.7153	5.1932	-3.2492	3.1742	6.0593	3.4095	2.1736	1.8464	-2.0155	2.6136	1.6933	2.7086	-0.177	7.9486	0.1173	0.6299	-1.071	0.5327	-11.7897	0.2304	0.5238	0.4197	0.2435	0.3145	0.2371	0.5159	0.4169	0.2323	0.2038	0.4012	0.3075	0.2	0.4603	0.3197	0.2549	0.3513	0.4188	0.2684	6.3201	1.7038	5.7212	15	141	1.38729386145297	1	0
"142"	15	60	3	0	0	1	9	-1	0	2.943	-0.5	-2.7385	2.3174	6.7442	4.2628	4.9794	-0.2734	-2.4676	6.6632	-1.7502	-2.5	-4.7079	-0.5251	4.3947	-1.9168	0.5037	-15.6062	2.4393	-1.2112	2.3614	0.333	0.333	0.333	0.333	0.333	0.333	0.333	0.333	0.333	0.333	0.333	0.333	0.333	0.333	0.333	0.333	0.333	0.333	0.333	6.327	1.4827	4.4441	15	142	1.07942946925134	0	1
"143"	15	28	3	4	4	0	8	1	1	2.33	6.0825	16.5043	-1.3913	2.7866	11.0565	2.1172	6.1549	-0.6967	0.5567	1.9586	9.2185	4.0894	-3.385	4.1734	-0.1583	-3.0019	4.4949	2.6086	6.4874	9.7003	0.3	0.213	0.3416	0.4944	0.2774	0.2259	0.3606	0.2729	0.307	0.3779	0.4855	0.3363	0.4412	0.3365	0.2023	0.4149	0.3047	0.3813	0.2623	6.3357	1.5275	3.8639	15	143	0.845868267577609	1	0
"144"	15	12	3	1	1	0	10	1	1	3.054	1.8884	-6.6449	-0.2585	-4.3687	-2.8362	6.6029	10.1048	11.9777	-4.5406	3.2643	4.2982	3.8876	-1.7486	-0.1137	1.8582	-3.0675	3.276	-5.8463	0.3196	0.5281	0.2653	0.3361	0.4913	0.29	0.2315	0.3426	0.3169	0.2302	0.3358	0.5192	0.3423	0.2805	0.4029	0.3027	0.3873	0.2118	0.2669	0.4124	0.3555	6.3212	1.5797	4.6382	15	144	1.11645220679644	1	0
"145"	15	22	3	-4	-4	0	4	-1	1	1.156	-0.9433	1.1624	-2.3222	-3.5941	-10.7515	-0.4874	-10.3018	0.2746	3.0301	-6.0949	-0.8173	-12.782	-5.5859	-8.1463	-7.5902	-6.2518	6.0794	-4.7868	-0.5063	-7.739	0.3969	0.2327	0.5119	0.4735	0.3067	0.4251	0.2048	0.434	0.3464	0.2042	0.3012	0.2362	0.4705	0.353	0.2015	0.2896	0.3486	0.3191	0.266	6.3216	1.6898	2.8564	15	145	0.144965770250186	0	1
"146"	15	41	3	2	2	0	13	1	1	4.424	2.2693	-2.7954	14.3664	1.3031	0.9069	0.1886	1.4595	-3.3293	-3.1506	-0.5128	2.3166	5.5037	4.1937	-4.2598	-3.7655	-0.8613	5.048	2.6674	13.0158	4.7254	0.5216	0.2242	0.3055	0.2271	0.436	0.2452	0.5097	0.3065	0.2805	0.311	0.2598	0.3274	0.5029	0.3258	0.2114	0.2963	0.2664	0.3384	0.4303	6.3262	1.7263	6.1587	15	146	1.48704426422003	1	0
"147"	15	62	3	2	2	1	12	-1	0	3.868	6.0616	-2.8562	0.8451	-8.9714	-5.9494	6.2186	3.2541	7.5513	5.4339	2.2168	9.443	2.4925	0.5385	1.9139	-1.0611	11.5737	3.157	-0.3006	-3.0437	1.3619	0.333	0.333	0.333	0.333	0.333	0.333	0.333	0.333	0.333	0.333	0.333	0.333	0.333	0.333	0.333	0.333	0.333	0.333	0.333	6.327	1.6952	5.5686	15	147	1.35273757759105	0	1
"148"	15	16	3	-2	-2	1	4	-1	1	1.277	-2.8761	3.0962	-0.9	-6.1168	-8.6175	-5.8562	-2.9545	0.71	5.7988	-7.8319	-7.411	1.5161	0.0468	-7.3344	6.0564	-7.2448	-3.7827	0.6006	-4.0081	6.9953	0.333	0.333	0.333	0.333	0.333	0.333	0.333	0.333	0.333	0.333	0.333	0.333	0.333	0.333	0.333	0.333	0.333	0.333	0.333	6.327	1.6364	2.9107	15	148	0.244513577050402	0	1
"149"	15	53	3	0	0	0	10	-1	0	3.1	-1.0424	1.0235	8.69	3.0774	4.6611	-0.4552	-6.6309	-3.4689	-1.5496	-8.5122	-1.6672	-1.9414	-4.5879	10.1224	3.2506	5.0332	-4.2941	3.9837	-0.7211	-6.7795	0.2268	0.278	0.4429	0.4774	0.2424	0.2869	0.2195	0.3033	0.4492	0.2385	0.4751	0.2951	0.264	0.4377	0.3695	0.3249	0.4372	0.3039	0.251	6.3232	1.4842	4.5835	15	149	1.1314021114911	0	1
"150"	15	56	3	4	4	0	6	1	1	2.011	5.8027	-4.272	12.8605	0.5608	-1.1995	5.6565	4.4298	12.6588	0.0247	-1.8238	10.7778	0.7509	-1.7853	6.8917	6.6967	3.602	7.6011	-1.5068	6.8046	6.2523	0.3401	0.3774	0.4215	0.2846	0.4577	0.2361	0.3341	0.4149	0.2695	0.2432	0.2021	0.2524	0.471	0.2052	0.4697	0.3225	0.4284	0.2073	0.389	6.3268	1.5024	3.5119	15	150	0.698632110790515	1	0
"151"	15	29	3	-4	-4	1	3	-1	1	0.867	-6.4517	-2.064	-3.5366	-10.4878	10.0675	-2.5374	1.8141	-7.4344	-7.4201	0.7301	-7.2728	-6.1608	-0.9495	-6.4819	-10.3179	-2.5509	-7.0541	-3.4315	-8.9695	1.7526	0.333	0.333	0.333	0.333	0.333	0.333	0.333	0.333	0.333	0.333	0.333	0.333	0.333	0.333	0.333	0.333	0.333	0.333	0.333	6.327	1.611	2.5013	15	151	-0.142716302201595	0	1
"152"	15	10	3	-1	-1	0	5	-1	1	1.089	-1.7367	1.8999	5.1138	-3.1891	-2.9582	0.5901	1.2209	-3.8628	-0.8118	-4.0511	-14.0422	-4.3459	5.1123	11.3103	1.8726	-2.1889	-3.6507	-1.9367	-3.8294	0.1663	0.2465	0.2176	0.3441	0.2242	0.372	0.467	0.5028	0.3068	0.3641	0.204	0.4739	0.3944	0.2461	0.3576	0.2515	0.502	0.2071	0.2584	0.3871	6.3272	1.6829	2.7899	15	152	0.0852598439508234	0	1
"153"	15	58	3	-2	-2	1	3	-1	1	0.778	-2.7775	5.3477	-4.2727	-13.9459	-4.6045	-1.7607	-5.2033	5.9038	-0.3956	-3.1761	-9.8052	-6.4438	-1.2576	6.2313	-0.203	-1.4885	1.0668	-4.7201	1.1329	1.6362	0.333	0.333	0.333	0.333	0.333	0.333	0.333	0.333	0.333	0.333	0.333	0.333	0.333	0.333	0.333	0.333	0.333	0.333	0.333	6.327	1.4649	2.2619	15	153	-0.251028754803745	0	1
"154"	15	5	3	1	1	1	4	1	1	1.099	-0.0612	7.6383	7.492	9.5498	0.5396	-0.5276	4.5172	1.6102	1.4196	-8.6092	3.6522	-5.7386	-5.504	-1.5266	1.9547	-0.0819	-6.4758	7.213	-1.7582	3.8572	0.333	0.333	0.333	0.333	0.333	0.333	0.333	0.333	0.333	0.333	0.333	0.333	0.333	0.333	0.333	0.333	0.333	0.333	0.333	6.327	1.439	2.5494	15	154	0.0944006754214843	1	0
"155"	15	32	3	0	0	1	4	-1	1	1.193	3.99	-7.5144	-6.3293	8.2325	-0.7605	2.6884	-3.6719	2.3916	-1.707	-6.4027	5.6327	-2.4316	-7.5673	-3.7906	4.4012	0.481	6.6496	7.0948	0.8028	-3.183	0.333	0.333	0.333	0.333	0.333	0.333	0.333	0.333	0.333	0.333	0.333	0.333	0.333	0.333	0.333	0.333	0.333	0.333	0.333	6.327	1.4897	2.6935	15	155	0.176471143115779	0	1
"156"	15	26	3	1	1	0	5	1	1	1.701	3.7297	-0.392	6.0268	6.1193	0.8573	-6.6191	0.4447	6.6025	-0.9879	6.9946	5.1591	0.5091	-9.3081	-4.0355	-0.2016	-8.5571	2.7786	5.4499	6.9278	-0.0852	0.2079	0.4562	0.4018	0.291	0.3994	0.2569	0.3022	0.4453	0.2475	0.3244	0.4737	0.2833	0.2301	0.418	0.2859	0.3134	0.2718	0.4139	0.3118	6.3343	1.4116	3.1182	15	156	0.531216313413725	1	0
"157"	15	65	3	-2	-2	0	3	-1	1	1.107	-0.1869	2.5345	-3.4527	-2.0761	-0.012	3.577	0.8455	-6.831	0.7328	-7.7093	-6.5738	-6.2959	0.3824	1.7282	-10.1769	-6.6705	-4.1481	-4.6473	11.4489	-1.6313	0.4762	0.4302	0.2383	0.4254	0.2673	0.2211	0.4272	0.3093	0.3554	0.3841	0.2936	0.4244	0.2433	0.4314	0.3019	0.2035	0.2658	0.4038	0.2289	6.3312	1.5246	2.6411	15	157	0.1016536537265	0	1
"158"	15	25	3	0	0	0	3	-1	1	0.892	-2.6433	-10.5525	3.8795	6.2818	-2.5367	6.4147	2.7942	-5.2436	-6.2346	0.604	2.1735	5.7097	0.3136	-7.7509	2.7992	-6.1534	3.2053	5.7838	0.3567	1.0998	0.2136	0.2768	0.4342	0.467	0.227	0.4024	0.4343	0.3456	0.2171	0.3334	0.3616	0.237	0.2668	0.3302	0.1999	0.475	0.4351	0.3047	0.3698	6.3315	1.5412	2.4424	15	158	-0.114289146402128	0	1
"159"	15	21	3	4	4	1	4	-1	0	1.051	-0.1401	2.4482	-3.0544	3.2046	9.1314	7.3547	0.1564	18.3431	1.4711	3.3287	5.1361	8.5056	4.8002	-0.0344	-1.0686	1.4	-0.8315	10.1018	5.5904	3.2994	0.333	0.333	0.333	0.333	0.333	0.333	0.333	0.333	0.333	0.333	0.333	0.333	0.333	0.333	0.333	0.333	0.333	0.333	0.333	6.327	1.4336	2.4849	15	159	0.049742091894814	0	1
"160"	15	31	3	-1	-1	1	4	-1	1	1.04	-2.2627	-11.0823	0.7492	1.5716	-0.186	9.4207	7.2947	2.9172	0.4671	-4.0324	-0.8799	-4.2863	-8.3571	-3.6296	-6.9734	-4.7206	5.0954	0.9501	0.0401	-2.9017	0.333	0.333	0.333	0.333	0.333	0.333	0.333	0.333	0.333	0.333	0.333	0.333	0.333	0.333	0.333	0.333	0.333	0.333	0.333	6.327	1.6095	2.657	15	160	0.0392207131532813	0	1
"161"	15	44	3	-2	-2	1	6	-1	1	1.777	2.5697	-10.53	-9.9802	-5.7235	-6.4473	-4.3657	2.4499	3.4432	0.46	-2.2022	-0.5684	-5.2638	-9.2096	-3.7566	-1.0096	2.8996	3.3016	0.5402	7.4716	-4.3864	0.333	0.333	0.333	0.333	0.333	0.333	0.333	0.333	0.333	0.333	0.333	0.333	0.333	0.333	0.333	0.333	0.333	0.333	0.333	6.327	1.5043	3.2942	15	161	0.574926549172514	0	1
"162"	15	40	3	1	1	0	10	-1	0	3.111	1.5027	-1.4863	7.4312	7.9477	-2.9443	2.9762	-1.697	-0.4837	-5.887	5.056	-5.9174	6.1106	9.9266	2.3943	-5.6901	-0.9884	-1.5908	-4.5394	5.212	4.3214	0.2007	0.5243	0.364	0.2683	0.2044	0.4541	0.2172	0.456	0.2478	0.4265	0.4827	0.2228	0.4728	0.2918	0.2365	0.3077	0.2402	0.4003	0.299	6.3172	1.5452	4.6615	15	162	1.1349442179155	0	1
"163"	15	48	3	2	2	1	7	1	1	2.115	1.9817	3.2011	2.8462	-2.9167	4.1024	5.7787	13.4736	-3.9045	1.4672	2.507	4.2169	5.8284	-8.9686	3.5881	2.222	2.7556	-5.3881	-1.2052	0.0961	8.1294	0.333	0.333	0.333	0.333	0.333	0.333	0.333	0.333	0.333	0.333	0.333	0.333	0.333	0.333	0.333	0.333	0.333	0.333	0.333	6.327	1.4524	3.566	15	163	0.749054812498241	1	0
"164"	15	20	3	2	2	1	9	-1	0	2.954	2.0598	8.4105	-0.5976	2.7136	-5.7158	-1.7737	8.0379	5.8032	-3.0369	0.1432	6.0507	4.372	4.3252	1.4505	-5.3823	2.1056	3.678	-8.2564	7.2274	8.0727	0.333	0.333	0.333	0.333	0.333	0.333	0.333	0.333	0.333	0.333	0.333	0.333	0.333	0.333	0.333	0.333	0.333	0.333	0.333	6.327	1.6586	4.621	15	164	1.08316018410919	0	1
"165"	15	4	3	0	0	1	6	1	1	1.798	3.4232	-0.6505	-4.5485	1.8186	-1.7775	-8.9277	-10.7302	1.7505	-1.3236	1.3158	-2.9354	-1.226	1.4081	1.0317	7.8737	9.4193	-1.8076	-5.0789	7.1674	2.333	0.333	0.333	0.333	0.333	0.333	0.333	0.333	0.333	0.333	0.333	0.333	0.333	0.333	0.333	0.333	0.333	0.333	0.333	0.333	6.327	1.6286	3.4494	15	165	0.586674936049429	1	0
"166"	15	6	3	2	2	1	9	-1	0	2.888	-2.0747	-1.2714	0.4413	3.1695	3.9707	5.3538	-6.6234	1.1092	-1.4711	2.2815	-3.9143	4.6331	-2.9276	11.4706	7.5857	10.9923	9.5756	-1.8269	0.1521	-1.2618	0.333	0.333	0.333	0.333	0.333	0.333	0.333	0.333	0.333	0.333	0.333	0.333	0.333	0.333	0.333	0.333	0.333	0.333	0.333	6.327	1.5754	4.4725	15	166	1.06056422103058	0	1
"167"	15	70	3	4	4	0	6	1	1	1.885	-0.0876	13.3251	3.696	8.9735	9.3323	-1.3312	4.7595	4.4583	0.4491	0.3395	6.664	-0.759	-2.2588	4.4141	-3.6856	6.0604	13.275	-0.2825	5.1428	6.6267	0.5244	0.4262	0.2372	0.3179	0.2432	0.3063	0.2616	0.3728	0.2254	0.3637	0.274	0.3987	0.306	0.2244	0.2873	0.2265	0.3596	0.5172	0.4641	6.3365	1.6665	3.5687	15	167	0.633927820899974	1	0
"168"	15	11	3	0	0	0	3	-1	0	0.932	-1.1494	-6.0679	-0.0631	4.3458	4.857	-5.8537	-5.5628	-0.0618	-8.1155	-4.2651	6.8375	4.0416	5.1003	-7.4979	2.9875	-2.2559	-3.4816	3.7769	8.0864	2.9384	0.2195	0.3992	0.4386	0.2375	0.2032	0.334	0.3958	0.345	0.4754	0.4262	0.289	0.3389	0.2253	0.4973	0.2396	0.2095	0.3958	0.3537	0.2989	6.3223	1.7245	2.6667	15	168	-0.0704224642965458	0	1
"169"	15	8	3	-4	-4	0	3	-1	1	0.889	-7.5697	-5.6262	-7.9665	-4.6874	5.4636	-6.2021	-8.7223	2.8414	-4.1404	-1.9603	-1.5963	1.9944	-9.755	-10.5096	-2.7423	-1.1917	-6.2967	-13.5387	2.3104	-1.3052	0.2625	0.319	0.3927	0.2457	0.2163	0.4968	0.2446	0.4085	0.2913	0.2637	0.4881	0.3174	0.2751	0.3863	0.2474	0.3639	0.204	0.5231	0.3768	6.3231	1.4782	2.3728	15	169	-0.117658043468232	0	1
"170"	15	69	3	2	2	0	8	1	1	2.36	-0.8196	0.6044	-0.6077	7.6115	5.9005	3.955	-0.0402	-1.4724	-0.6563	-5.0454	2.74	0.4247	-2.5316	4.9798	2.8266	6.4699	2.6015	-2.9321	17.2371	-2.2366	0.2808	0.4303	0.3287	0.2839	0.2462	0.5129	0.2771	0.4143	0.2254	0.2776	0.477	0.2917	0.3901	0.5	0.2292	0.3053	0.2465	0.2734	0.3353	6.3257	1.4079	3.777	15	170	0.858661619037519	1	0
"171"	15	24	3	-1	-1	0	3	-1	1	1.068	-3.9757	0.5789	-0.4694	-9.6884	0.8345	0.054	-1.9542	8.4855	3.3739	3.5183	-6.8781	1.0034	-4.2106	-4.033	-5.557	9.5005	-1.2975	1.4452	-4.0872	-6.7078	0.2552	0.4372	0.3864	0.2622	0.3239	0.2227	0.5292	0.4436	0.2874	0.4307	0.2239	0.342	0.2248	0.2712	0.425	0.2248	0.4021	0.3007	0.3261	6.319	1.6721	2.7522	15	171	0.0657877405380032	0	1
"172"	15	15	3	-4	-4	1	3	-1	1	0.803	-6.1475	-15.2968	-3.8646	-6.2239	6.2933	-8.4443	4.1613	-4.6677	2.2099	-5.0977	-7.1444	-5.0037	-2.4835	-8.153	-3.0609	-5.4704	-0.5319	-10.3095	2.0615	-4.007	0.333	0.333	0.333	0.333	0.333	0.333	0.333	0.333	0.333	0.333	0.333	0.333	0.333	0.333	0.333	0.333	0.333	0.333	0.333	6.327	1.4888	2.3033	15	172	-0.219400565035375	0	1
"173"	15	39	3	0	0	0	8	-1	1	2.64	0.4039	-5.1787	0.7709	-7.9091	-3.5911	-0.5983	-1.5823	1.5958	-0.5689	-5.8665	6.4485	1.835	-1.5444	6.0053	-4.4153	-0.3306	5.7933	-6.0052	1.6818	12.8898	0.4522	0.3447	0.3935	0.3508	0.2869	0.3717	0.2041	0.2647	0.4337	0.2656	0.2999	0.3496	0.4543	0.2489	0.2093	0.4128	0.3082	0.2411	0.4378	6.3298	1.6418	4.2905	15	173	0.970778917158225	0	1
"174"	15	33	3	1	1	1	4	-1	0	1.271	-0.6212	-1.9331	-2.0888	-7.182	7.5818	-1.1721	-5.6622	5.7813	-2.8008	-4.7601	4.4121	7.8494	9.2271	2.5877	-3.491	0.0617	-1.8807	2.907	5.6381	5.8403	0.333	0.333	0.333	0.333	0.333	0.333	0.333	0.333	0.333	0.333	0.333	0.333	0.333	0.333	0.333	0.333	0.333	0.333	0.333	6.327	1.462	2.7383	15	174	0.239803992207317	0	1
"175"	15	34	3	2	2	1	6	1	1	1.877	-2.1551	3.7348	8.6088	4.5546	-0.4366	2.2003	2.0096	12.6897	5.1798	2.2511	5.7765	-7.7595	1.8215	-4.7418	-2.0198	7.7362	-5.1551	1.846	2.3083	2.5583	0.333	0.333	0.333	0.333	0.333	0.333	0.333	0.333	0.333	0.333	0.333	0.333	0.333	0.333	0.333	0.333	0.333	0.333	0.333	6.327	1.5484	3.4276	15	175	0.629674757604372	1	0
"176"	15	66	3	-1	-1	0	16	1	0	5.121	-4.7672	-4.4335	0.3139	-10.8656	1.0982	1.511	2.9818	2.8068	5.5506	-9.4843	3.0215	3.0702	-2.0137	-6.1902	7.489	0.988	-4.473	-3.3458	1.9311	-4.5573	0.414	0.3449	0.376	0.2377	0.3805	0.241	0.3699	0.4057	0.3488	0.3956	0.2544	0.2174	0.398	0.5125	0.2193	0.2901	0.3777	0.3181	0.2247	6.3264	1.4524	6.5717	15	176	1.63334973248041	1	0
"177"	15	55	3	2	2	0	3	1	1	1.046	6.8373	7.6101	1.5508	-1.2269	-4.8268	-0.5469	11.3353	0.2946	1.6025	-5.4063	8.4656	4.5766	5.5852	-1.3566	-4.9835	4.5007	5.8634	-4.4373	-2.796	6.1085	0.3579	0.4079	0.3474	0.4154	0.2422	0.5227	0.2081	0.4677	0.2022	0.2603	0.5039	0.2896	0.2105	0.5323	0.2125	0.2402	0.2963	0.2648	0.3412	6.3232	1.6491	2.6964	15	177	0.0449733656427312	1	0
"178"	15	42	3	4	4	0	5	1	1	1.624	1.4999	0.4575	-0.0983	8.2935	6.929	9.3143	0.2627	4.4181	11.734	-0.7165	2.325	12.8516	3.9492	-6.9633	6.133	5.6153	6.7351	-3.9697	7.5729	5.3019	0.3073	0.2239	0.2832	0.4808	0.4371	0.3246	0.3707	0.2737	0.3868	0.2558	0.2117	0.3474	0.2133	0.3608	0.2299	0.3678	0.5083	0.3394	0.4038	6.3264	1.4264	3.058	15	178	0.484892241739486	1	0
"179"	15	59	3	-1	-1	1	4	-1	1	1.213	-2.8343	-6.1266	-3.1014	-3.2215	-1.9646	-4.2814	4.5535	-8.6283	-3.4123	-7.1289	5.5239	4.9444	-2.5647	1.418	-7.7581	4.3642	4.6325	7.285	-4.171	1.1758	0.333	0.333	0.333	0.333	0.333	0.333	0.333	0.333	0.333	0.333	0.333	0.333	0.333	0.333	0.333	0.333	0.333	0.333	0.333	6.327	1.4973	2.731	15	179	0.193096629961913	0	1
"180"	15	64	3	-4	-4	0	8	-1	1	2.462	-2.5314	4.9837	-9.8861	-8.4615	2.088	-12.5354	-11.2294	-2.5871	-1.2323	-3.0781	-1.5389	5.0578	-3.038	-10.0086	-8.5715	-4.4722	-0.427	-4.8198	-3.0633	-2.9368	0.2633	0.3523	0.4602	0.4088	0.2548	0.2916	0.2397	0.524	0.2544	0.2959	0.2548	0.5099	0.435	0.3591	0.2042	0.3677	0.2657	0.31	0.2849	6.3363	1.688	4.1629	15	180	0.900974027762262	0	1
"181"	15	67	3	0	0	0	5	-1	1	1.353	3.2897	-9.2848	-3.0999	-1.866	-3.5379	-3.8067	-1.7885	0.137	-5.1215	-0.68	1.2821	9.7472	6.2786	10.4236	2.6195	-5.457	0.47	0.9759	-2.6524	3.7802	0.2779	0.3132	0.3424	0.4055	0.4347	0.2442	0.3365	0.2991	0.204	0.4229	0.3215	0.3596	0.4927	0.3007	0.2155	0.3974	0.2534	0.4217	0.2857	6.3286	1.5796	2.9541	15	181	0.302324349188651	0	1
"182"	15	46	3	0	0	1	12	-1	1	3.87	2.715	-0.9158	-2.8488	4.5676	-1.8118	6.7246	-6.1955	8.1417	-9.0864	-1.7591	-9.7989	-3.4054	3.2032	4.5722	1.9579	-1.3024	1.649	5.4938	-1.883	0.3684	0.333	0.333	0.333	0.333	0.333	0.333	0.333	0.333	0.333	0.333	0.333	0.333	0.333	0.333	0.333	0.333	0.333	0.333	0.333	6.327	1.6355	5.5203	15	182	1.35325450704169	0	1
"183"	15	1	3	-4	-4	1	3	-1	1	0.891	-7.8127	1.7462	-4.9571	-12.8637	-7.3563	-1.0344	-2.822	-2.3783	-5.7239	-12.4729	-6.8149	6.3304	-1.1126	1.4748	-9.2576	-5.9493	2.1597	-7.415	-2.2145	0.4469	0.333	0.333	0.333	0.333	0.333	0.333	0.333	0.333	0.333	0.333	0.333	0.333	0.333	0.333	0.333	0.333	0.333	0.333	0.333	6.327	1.7267	2.6249	15	183	-0.115410851511328	0	1
"184"	15	18	3	0	0	1	4	1	1	1.304	-0.2989	6.4888	2.6713	8.3002	-7.512	-0.7262	7.5595	-6.1751	3.8259	-5.3718	-7.4818	6.0668	-4.3527	0.3369	-2.1578	1.5364	-1.2926	-1.6387	5.6158	-4.6485	0.333	0.333	0.333	0.333	0.333	0.333	0.333	0.333	0.333	0.333	0.333	0.333	0.333	0.333	0.333	0.333	0.333	0.333	0.333	6.327	1.6146	2.9215	15	184	0.265436463504461	1	0
"185"	15	37	3	-2	-2	0	4	-1	1	1.302	-2.4668	-3.271	4.3652	4.767	1.6951	1.107	-0.9783	-11.8361	-7.0847	0.5283	-7.0701	-0.8025	-2.7875	-6.7946	-4.7819	-8.1678	1.066	-0.6005	8.9191	-4.9212	0.3375	0.3836	0.3451	0.2386	0.2133	0.4767	0.5238	0.3829	0.2051	0.494	0.217	0.2838	0.3535	0.2814	0.237	0.3339	0.2098	0.2844	0.5188	6.3204	1.4964	2.8029	15	185	0.263901543786378	0	1
"186"	15	9	3	-2	-2	0	4	-1	1	0.986	-4.2692	-9.7393	4.5444	-4.1737	-6.6334	8.773	3.549	-2.6934	-6.3771	-3.4121	-3.3806	-4.4237	-6.5972	0.9471	-1.2692	-0.3291	7.6177	-5.1845	-0.268	-7.4577	0.2422	0.2154	0.2841	0.4013	0.2113	0.3842	0.2608	0.4903	0.4648	0.2013	0.267	0.2212	0.466	0.3139	0.4468	0.2519	0.4836	0.4318	0.2936	6.3315	1.4683	2.4697	15	186	-0.0140989243795016	0	1
"187"	15	52	3	-1	-1	0	5	1	0	1.419	1.6044	-5.2848	5.247	-4.7816	2.2322	-2.1936	-0.6798	-4.3645	6.2884	-3.3637	-4.2154	-1.9733	-4.6389	0.3111	9.2576	8.3014	-7.4425	-3.9493	-2.619	-6.786	0.4456	0.2463	0.4063	0.2148	0.4299	0.335	0.2728	0.3365	0.225	0.3637	0.3006	0.397	0.2041	0.4676	0.3932	0.3125	0.4037	0.2559	0.3115	6.3221	1.4633	2.8868	15	187	0.349952398177906	1	0
"188"	15	14	3	4	4	0	15	1	1	4.739	3.8283	-5.2215	15.3574	5.0474	0.9354	-1.2969	4.1616	2.6949	0.1382	0.6885	11.2654	0.9696	-0.4813	3.7071	3.3265	-0.1525	9.8397	6.5188	8.8377	9.4231	0.2479	0.4784	0.3072	0.2533	0.4959	0.419	0.3291	0.3662	0.3404	0.3846	0.3065	0.2165	0.2534	0.2989	0.3972	0.2936	0.3594	0.3335	0.2497	6.3307	1.6217	6.3733	15	188	1.55582614298545	1	0
"189"	15	51	3	-2	-2	0	4	-1	1	0.832	-5.0405	-3.8948	0.6132	3.1028	-2.1838	-0.8094	-4.0412	-0.2404	0.8863	1.8238	-8.2897	-9.8224	-4.0765	4.3435	2.7165	0.0887	-8.5415	1.3448	-13.3032	5.7806	0.2176	0.2677	0.3444	0.5207	0.2874	0.3439	0.4137	0.3772	0.4559	0.3402	0.2212	0.2937	0.3614	0.4028	0.2737	0.2291	0.2987	0.4123	0.2612	6.3228	1.5411	2.3831	15	189	-0.183922838160928	0	1
"190"	15	7	3	4	4	1	11	1	1	3.454	6.4614	-5.6871	0.4055	0.9402	3.3474	2.8385	3.5895	6.6431	8.2774	2.8625	8.853	13.3505	1.3785	8.2855	1.9324	8.5875	5.4937	-2.775	9.9496	-4.1355	0.333	0.333	0.333	0.333	0.333	0.333	0.333	0.333	0.333	0.333	0.333	0.333	0.333	0.333	0.333	0.333	0.333	0.333	0.333	6.327	1.5765	5.0385	15	190	1.23953297972449	1	0
"191"	15	57	3	-4	-4	1	6	-1	1	1.742	-4.1076	-2.0722	-6.7028	-5.8236	-4.6338	-4.6223	-7.3852	-1.3204	3.5469	-8.1149	-8.4409	-3.0472	0.9936	0.2501	-13.9287	-5.8874	-4.8724	-5.8999	9.2324	-8.4805	0.333	0.333	0.333	0.333	0.333	0.333	0.333	0.333	0.333	0.333	0.333	0.333	0.333	0.333	0.333	0.333	0.333	0.333	0.333	6.327	1.5361	3.2756	15	191	0.555033878430311	0	1
"192"	15	2	3	-2	-2	1	5	-1	1	1.338	-4.3951	-5.5199	-1.0518	-2.8228	9.5043	0.4736	0.6838	4.4055	-6.6869	-6.5555	-7.7389	-4.3519	-1.4338	0.313	8.8123	-4.9728	-6.7368	-6.6524	-2.5066	-2.7293	0.333	0.333	0.333	0.333	0.333	0.333	0.333	0.333	0.333	0.333	0.333	0.333	0.333	0.333	0.333	0.333	0.333	0.333	0.333	6.327	1.4036	2.7551	15	192	0.291175961706037	0	1
"193"	15	3	3	-1	-1	1	8	1	0	2.395	-1.4059	-2.2117	3.0381	0.2933	-2.0497	-7.7594	-0.129	-6.9897	0.2583	8.5784	-4.6851	4.0709	-5.9727	-0.7577	-4.6271	7.4938	-10.7998	3.6683	3.9535	-2.9262	0.333	0.333	0.333	0.333	0.333	0.333	0.333	0.333	0.333	0.333	0.333	0.333	0.333	0.333	0.333	0.333	0.333	0.333	0.333	6.327	1.6733	4.0794	15	193	0.873383230862879	1	0
"194"	15	23	3	-2	-2	0	13	-1	1	3.879	1.6587	4.0168	5.3329	-3.8025	-3.8099	-6.5036	-5.4161	-3.867	4.9895	-12.5257	-0.5066	0.268	4.1811	-1.8959	1.5725	2.1899	-5.4545	-8.7139	-5.4461	-6.4627	0.338	0.4036	0.2793	0.2393	0.2713	0.3655	0.2084	0.4724	0.2444	0.3428	0.2378	0.2804	0.5044	0.3525	0.4367	0.3596	0.3016	0.4478	0.2419	6.3274	1.5899	5.4793	15	194	1.35557738845783	0	1
"195"	15	43	3	-4	-4	1	4	-1	1	1.06	-4.251	-2.5935	-7.351	-7.3603	-2.969	-4.724	-3.5669	6.8826	5.023	-6.571	-8.2342	-10.6834	-2.4029	6.6818	-8.8082	-8.4271	-1.2437	-4.9481	-7.0929	-5.8051	0.333	0.333	0.333	0.333	0.333	0.333	0.333	0.333	0.333	0.333	0.333	0.333	0.333	0.333	0.333	0.333	0.333	0.333	0.333	6.327	1.6338	2.7108	15	195	0.0582689081239758	0	1
"196"	15	30	3	-2	-2	1	12	-1	1	3.867	-5.1006	-1.7691	-6.7253	10.8029	-1.0896	-0.3573	-6.7935	3.8221	-7.9646	-3.9668	-7.0433	-5.1866	-1.1358	2.8096	-6.8316	-2.4538	-2.3565	-2.8158	7.9795	-5.2369	0.333	0.333	0.333	0.333	0.333	0.333	0.333	0.333	0.333	0.333	0.333	0.333	0.333	0.333	0.333	0.333	0.333	0.333	0.333	6.327	1.4548	5.334	15	196	1.35247901262516	0	1
"197"	15	61	3	1	1	1	8	1	1	2.378	-2.5259	5.6705	4.3016	-1.5375	6.9508	2.2269	-6.9096	-3.0305	-5.0652	7.5803	-2.2969	-0.0719	6.5229	-3.9223	-1.7294	6.8292	-5.6995	1.8563	0.3659	8.5255	0.333	0.333	0.333	0.333	0.333	0.333	0.333	0.333	0.333	0.333	0.333	0.333	0.333	0.333	0.333	0.333	0.333	0.333	0.333	6.327	1.6548	4.0456	15	197	0.86625979826859	1	0
"198"	15	47	3	1	1	1	13	1	1	4.191	3.0536	-3.1468	-9.8335	6.1216	-5.1359	4.3696	-6.6012	1.2402	0.4296	7.649	-0.4946	5.4434	3.5581	11.0829	-0.1654	-1.0097	0.7892	-1.9083	2.8191	3.2734	0.333	0.333	0.333	0.333	0.333	0.333	0.333	0.333	0.333	0.333	0.333	0.333	0.333	0.333	0.333	0.333	0.333	0.333	0.333	6.327	1.4854	5.6913	15	198	1.43293936894293	1	0
"199"	15	63	3	4	4	1	10	1	1	3.063	1.4259	8.4401	10.9796	-0.7842	6.8102	-1.0492	5.8539	12.3635	5.2836	-1.0894	5.5615	0.6565	-0.6445	6.5135	-0.5597	8.4063	-1.0811	13.0011	-3.8549	3.1957	0.333	0.333	0.333	0.333	0.333	0.333	0.333	0.333	0.333	0.333	0.333	0.333	0.333	0.333	0.333	0.333	0.333	0.333	0.333	6.327	1.677	4.7473	15	199	1.11939482785064	1	0
"200"	15	19	3	1	1	1	10	1	1	3.288	0.9864	-1.007	-1.1081	10.4836	-1.1701	-1.8605	13.1193	7.1947	-0.9432	-3.1969	2.4461	3.0226	4.6288	-3.3469	5.2263	-6.0341	-1.668	-3.9409	-2.7051	0.594	0.333	0.333	0.333	0.333	0.333	0.333	0.333	0.333	0.333	0.333	0.333	0.333	0.333	0.333	0.333	0.333	0.333	0.333	0.333	6.327	1.4746	4.7719	15	200	1.19027947719393	1	0
"201"	15	27	3	2	2	0	7	1	1	1.844	-0.6238	12.1883	-2.2994	-1.5775	7.7903	2.3013	-3.5723	5.2321	1.6651	4.8188	3.7364	-5.548	1.4149	0.6499	12.7482	-1.6134	4.8044	1.9816	-0.5504	-4.3588	0.2143	0.3064	0.2555	0.3745	0.2228	0.4479	0.2533	0.4102	0.2995	0.4636	0.3528	0.5185	0.3033	0.2007	0.45	0.3533	0.3928	0.2042	0.3002	6.3239	1.7158	3.5618	15	201	0.611937125134402	1	0
"202"	15	50	3	-4	-4	0	6	-1	1	2.166	-1.6929	-5.2187	5.3118	-14.3521	-9.5882	-4.7553	-1.6261	-5.5315	-0.8882	-2.2493	-7.215	5.543	-9.3639	-1.289	-8.0828	-1.1099	-2.6555	-11.0704	-2.6376	-1.393	0.4544	0.3582	0.3883	0.2867	0.4859	0.3859	0.4737	0.3953	0.2188	0.2576	0.2905	0.2255	0.3863	0.3564	0.2115	0.2837	0.2119	0.4085	0.2539	6.333	1.4108	3.5836	15	202	0.772882148578799	0	1
"203"	15	17	3	-1	-1	1	19	-1	1	6.309	2.4333	6.9643	-12.5951	-1.166	4.3305	-0.3789	-4.378	2.8643	-1.2393	-7.2853	2.5888	-5.4092	7.2761	-1.4773	-2.5962	-5.6133	-1.0858	-3.5576	-4.5829	4.5735	0.333	0.333	0.333	0.333	0.333	0.333	0.333	0.333	0.333	0.333	0.333	0.333	0.333	0.333	0.333	0.333	0.333	0.333	0.333	6.327	1.4246	7.7427	15	203	1.84197718538867	0	1
"204"	15	68	3	1	1	0	16	1	1	5.01	-1.0119	2.5248	-2.6035	6.0388	-0.7067	-1.8946	4.4001	7.4272	11.5934	3.3035	-1.0752	0.7093	4.6951	5.9621	-3.7779	0.885	-0.7809	-5.5502	-0.3873	-10.3871	0.4385	0.2088	0.3686	0.2043	0.3225	0.428	0.2541	0.3024	0.4045	0.3086	0.496	0.2388	0.288	0.3265	0.3924	0.3078	0.5185	0.3034	0.2063	6.3179	1.5158	6.5441	15	204	1.61143591509677	1	0
"205"	15	35	3	4	4	1	13	-1	0	4.15	0.7488	1.2144	11.2196	10.041	7.0028	-1.8571	8.1074	13.5128	-1.6607	-0.7836	2.2857	10.4284	-0.1214	-2.8171	2.8978	7.5971	4.2499	7.8457	2.4781	-2.4818	0.333	0.333	0.333	0.333	0.333	0.333	0.333	0.333	0.333	0.333	0.333	0.333	0.333	0.333	0.333	0.333	0.333	0.333	0.333	6.327	1.4942	5.6505	15	205	1.42310833424261	0	1
"206"	15	54	3	1	1	0	12	1	1	4.055	-2.2642	0.7053	10.5331	-3.7513	4.9354	-1.9379	6.2158	5.0574	-4.7826	-2.3001	-1.81	1.4285	9.8384	-3.0373	5.8416	-3.4975	6.8211	-3.7862	-2.7084	-0.8623	0.3289	0.2852	0.2336	0.4346	0.369	0.2042	0.3442	0.311	0.5191	0.2614	0.3471	0.4663	0.4345	0.3403	0.2972	0.2036	0.2857	0.46	0.2049	6.3309	1.4704	5.5395	15	206	1.39995068756738	1	0
"207"	15	36	3	-4	-4	0	4	-1	1	1.209	-5.2869	-4.9143	-10.4481	-3.5541	-2.2094	10.103	-4.3113	-2.3125	-6.6094	-0.8858	-12.6344	-10.2336	-6.4189	-1.9179	-0.7558	-5.3608	-8.1083	1.5256	-5.7814	-1.0919	0.2795	0.2448	0.4247	0.2906	0.213	0.4678	0.2433	0.3367	0.4034	0.2515	0.4484	0.3216	0.4716	0.3367	0.2556	0.3831	0.4241	0.2768	0.2513	6.3242	1.5706	2.793	15	207	0.189793571632656	0	1
"208"	15	49	3	4	4	1	7	1	1	2.125	0.7547	0.8826	-0.864	12.7688	6.3706	0.2642	-1.1194	7.9375	-5.5019	11.0312	8.5586	7.8609	1.0074	-1.8131	1.3923	7.6673	12.1878	4.2055	2.2116	3.8759	0.333	0.333	0.333	0.333	0.333	0.333	0.333	0.333	0.333	0.333	0.333	0.333	0.333	0.333	0.333	0.333	0.333	0.333	0.333	6.327	1.4415	3.5753	15	208	0.75377180237638	1	0
"209"	15	45	3	-1	-1	1	4	-1	1	1.126	-2.7199	-4.2924	4.2178	3.8467	1.8071	3.4319	-4.8761	7.1562	-7.602	-0.0914	-3.1975	-5.3143	-9.1186	1.0524	-4.6807	-5.1993	-7.9494	3.6552	1.6759	6.724	0.333	0.333	0.333	0.333	0.333	0.333	0.333	0.333	0.333	0.333	0.333	0.333	0.333	0.333	0.333	0.333	0.333	0.333	0.333	6.327	1.4954	2.6269	15	209	0.118671529717499	0	1
"210"	15	38	3	-1	-1	0	5	-1	1	1.655	2.625	-6.0456	-11.2294	1.7039	6.6756	-3.4639	7.9346	-4.9746	0.4505	-1.5757	2.334	-2.8033	2.6533	-7.9403	-0.1503	0.1737	-7.9232	-1.5811	5.4383	-3.2139	0.2857	0.3912	0.3441	0.3794	0.3465	0.2216	0.3784	0.4784	0.3398	0.4353	0.2019	0.3233	0.266	0.2256	0.4049	0.2162	0.4939	0.2576	0.341	6.3306	1.4711	3.1222	15	210	0.503801008829026	0	1
"211"	15	44	4	-2	-2	1	4	-1	1	1.317	-4.0082	-5.5005	7.0511	-3.6353	-1.1416	-0.0595	8.198	2.3533	2.1937	-3.0257	-8.3634	-7.1629	0.5444	-6.7976	-6.947	-4.5515	5.5033	-1.3149	-8.4024	-3.8965	0.333	0.333	0.333	0.333	0.333	0.333	0.333	0.333	0.333	0.333	0.333	0.333	0.333	0.333	0.333	0.333	0.333	0.333	0.333	6.327	1.413	2.7513	15	211	0.275356422761144	0	1
"212"	15	24	4	-1	-1	0	5	-1	1	1.701	-2.5363	-5.5843	-0.271	-10.7268	-1.9123	5.5123	-9.0348	4.354	-5.5295	5.7238	-3.7772	-5.4074	-2.4568	1.6067	7.087	-2.1274	-1.3225	3.5561	-0.9507	3.3232	0.3626	0.2586	0.4319	0.2917	0.52	0.2321	0.4095	0.4432	0.2915	0.2188	0.3933	0.2327	0.3228	0.3518	0.2303	0.3887	0.504	0.2042	0.2339	6.3218	1.6936	3.4016	15	212	0.531216313413725	0	1
"213"	15	28	4	4	4	0	4	1	1	1.253	5.6685	2.861	0.8944	10.9871	0.4357	-5.9084	-4.4995	2.1129	3.0691	-0.211	-0.4386	4.6259	10.163	4.6915	12.6201	3.3575	6.9362	5.4182	8.4024	10.7891	0.4097	0.2978	0.35	0.2734	0.4942	0.3218	0.2719	0.4993	0.2433	0.2146	0.3432	0.2028	0.5119	0.263	0.3068	0.3677	0.4867	0.2134	0.2561	6.3278	1.4196	2.6873	15	213	0.225540675913931	1	0
"214"	15	70	4	4	4	0	4	1	1	1.157	5.7794	4.2041	14.3894	3.6669	2.2785	5.4864	5.3934	-1.2584	1.5993	-4.3922	9.979	10.1215	1.5623	-4.0498	8.6714	9.5164	2.8082	-4.2164	3.852	5.4041	0.3426	0.4664	0.2279	0.3047	0.2508	0.4335	0.341	0.514	0.2662	0.3695	0.2501	0.3285	0.2123	0.4139	0.2411	0.4461	0.4187	0.2936	0.2045	6.3253	1.4795	2.6404	15	214	0.14583044821154	1	0
"215"	15	55	4	2	2	0	6	-1	0	1.956	1.9349	0.3077	-0.6706	-0.0853	-2.1205	4.1591	-3.0918	3.8665	-5.8348	-6.6438	4.2538	10.1827	3.6207	8.8808	12.8495	7.498	1.5956	3.1925	-1.1696	-1.2875	0.2972	0.3595	0.5077	0.2508	0.3323	0.276	0.3181	0.2134	0.4281	0.24	0.4595	0.2016	0.5173	0.3585	0.3185	0.2158	0.2457	0.4054	0.3718	6.3171	1.5371	3.5067	15	215	0.670901571612626	0	1
"216"	15	58	4	-2	-2	1	11	-1	1	3.561	-3.2993	-1.6169	-0.7913	-7.3394	4.8744	6.3586	-6.3953	-2.7004	0.1839	-1.6436	-3.2707	5.8739	9.4192	-5.2379	-4.44	-4.6835	-6.737	-4.9955	-8.0069	-5.7349	0.333	0.333	0.333	0.333	0.333	0.333	0.333	0.333	0.333	0.333	0.333	0.333	0.333	0.333	0.333	0.333	0.333	0.333	0.333	6.327	1.5625	5.1282	15	216	1.27004140429564	0	1
"217"	15	47	4	1	1	1	10	-1	0	3.068	5.1579	-4.3373	-8.0576	7.5451	2.6015	-5.3314	4.1169	0.4242	-5.3639	6.8373	-1.7144	3.8812	2.8548	5.5481	-0.679	-2.7494	8.02	-6.7877	3.2433	5.9386	0.333	0.333	0.333	0.333	0.333	0.333	0.333	0.333	0.333	0.333	0.333	0.333	0.333	0.333	0.333	0.333	0.333	0.333	0.333	6.327	1.5624	4.6355	15	217	1.12102588350501	0	1
"218"	15	10	4	-1	-1	0	13	1	0	4.235	-3.8378	5.4036	-3.6619	6.51	-4.1176	-0.6928	3.923	-1.2207	2.4901	1.1799	7.3929	0.3123	-3.6601	-11.3674	-1.1756	2.0857	-4.7219	-7.5233	-7.7579	-0.5663	0.4844	0.2578	0.5285	0.309	0.2415	0.3363	0.2405	0.4976	0.2636	0.3153	0.2006	0.3449	0.4072	0.2332	0.3393	0.2781	0.2086	0.494	0.3402	6.3206	1.4433	5.6858	15	218	1.44338332810402	1	0
"219"	15	41	4	2	2	0	7	-1	0	2.037	2.6441	0.6616	-5.468	-1.8739	6.902	-2.9508	-3.3855	-1.5206	-3.4041	5.0246	7.4999	1.6795	3.1413	13.1499	4.2728	-0.3246	6.8707	4.4846	-4.0771	7.6673	0.3307	0.4057	0.3797	0.2069	0.2556	0.3733	0.2468	0.3292	0.2291	0.4329	0.5214	0.4184	0.2303	0.31	0.2481	0.5034	0.2694	0.393	0.2382	6.3222	1.4663	3.5041	15	219	0.711478137244669	0	1
"220"	15	66	4	-1	-1	0	5	-1	1	1.489	-2.365	-0.7036	0.5651	-14.3074	-10.7831	5.3625	-2.5555	0.5951	-0.6306	3.384	0.4813	-5.9184	4.224	-1.1507	3.5844	5.298	-2.5726	-1.2846	-1.9427	0.3144	0.391	0.4629	0.2786	0.233	0.3605	0.3098	0.4974	0.4028	0.2449	0.2991	0.3754	0.2303	0.4495	0.2075	0.3359	0.2943	0.264	0.4342	0.2557	6.3268	1.6804	3.173	15	220	0.398104753701872	0	1
"221"	15	59	4	-1	-1	1	4	-1	1	1.126	-1.1874	-3.7261	9.3776	-4.0196	-1.1646	-6.6713	3.2638	2.4485	4.2587	-5.4424	-9.3534	-0.2496	3.367	4.1943	3.9549	-1.2999	-2.605	-2.0631	-9.8386	-1.9087	0.333	0.333	0.333	0.333	0.333	0.333	0.333	0.333	0.333	0.333	0.333	0.333	0.333	0.333	0.333	0.333	0.333	0.333	0.333	6.327	1.4068	2.543	15	221	0.118671529717499	0	1
"222"	15	61	4	1	1	1	5	1	1	1.465	0.5697	2.7462	2.0363	-1.3692	-7.4005	8.7433	9.2597	8.2331	2.4895	4.065	3.1974	-0.7124	4.135	-0.0929	-3.8655	0.2156	-0.3856	2.0388	-2.8087	-10.7398	0.333	0.333	0.333	0.333	0.333	0.333	0.333	0.333	0.333	0.333	0.333	0.333	0.333	0.333	0.333	0.333	0.333	0.333	0.333	6.327	1.408	2.8822	15	222	0.381855242469031	1	0
"223"	15	69	4	2	2	0	14	1	1	4.569	-1.1174	9.0386	4.7129	-3.9295	-6.6372	4.4972	11.4901	3.1373	-7.0516	0.8842	6.1372	2.1611	4.4952	4.9709	5.1655	-1.3731	4.0437	5.5859	-3.5376	-2.8351	0.3653	0.2464	0.3528	0.4187	0.3193	0.5084	0.2015	0.3074	0.2819	0.347	0.2258	0.3303	0.4741	0.3039	0.4293	0.2032	0.3816	0.2675	0.3677	6.3321	1.6506	6.2369	15	223	1.51929436258113	1	0
"224"	15	30	4	-2	-2	1	10	-1	1	3.085	-1.391	0.9539	-7.5939	11.6774	-4.5703	-7.6157	-6.1072	-3.6403	-3.307	5.3496	-6.7077	3.5854	-6.002	-5.6039	-3.849	-2.3424	-5.0552	-0.3864	-2.0284	5.0841	0.333	0.333	0.333	0.333	0.333	0.333	0.333	0.333	0.333	0.333	0.333	0.333	0.333	0.333	0.333	0.333	0.333	0.333	0.333	6.327	1.5699	4.6692	15	224	1.12655165735735	0	1
"225"	15	45	4	-1	-1	1	3	-1	1	0.902	-4.3144	-12.9835	-1.7726	-3.1001	0.666	-1.2095	-8.4564	3.1713	-3.1406	2.9011	-1.0737	7.6719	1.7649	3.112	6.2713	-3.0694	0.1037	-0.2031	-8.6143	2.035	0.333	0.333	0.333	0.333	0.333	0.333	0.333	0.333	0.333	0.333	0.333	0.333	0.333	0.333	0.333	0.333	0.333	0.333	0.333	6.327	1.6935	2.6029	15	225	-0.103140758919513	0	1
"226"	15	21	4	4	4	1	4	1	1	1.298	6.9322	4.1678	5.1739	0.2053	-0.7538	-7.1568	4.2778	6.3366	-0.5898	4.1511	9.7015	5.0321	2.4821	7.1546	3.7002	9.5291	16.4996	3.6223	-3.821	4.9079	0.333	0.333	0.333	0.333	0.333	0.333	0.333	0.333	0.333	0.333	0.333	0.333	0.333	0.333	0.333	0.333	0.333	0.333	0.333	6.327	1.5015	2.8153	15	226	0.260824618281898	1	0
"227"	15	36	4	-4	-4	0	3	-1	1	0.817	-3.1318	-5.6618	-13.4065	-1.3142	3.4101	-2.6041	-6.4671	-3.6273	-11.3526	-13.0093	-5.327	-8.7851	-2.8122	-1.7775	0.3754	-2.2848	-7.2663	-0.2586	-2.8872	6.7512	0.2408	0.204	0.4043	0.2053	0.2588	0.306	0.3961	0.2448	0.2936	0.4769	0.4205	0.5151	0.2464	0.3411	0.4487	0.2868	0.4046	0.3585	0.2794	6.3317	1.4813	2.3178	15	227	-0.202116184122134	0	1
"228"	15	32	4	0	0	1	12	-1	1	3.989	2.0787	8.4509	10.9639	-1.4923	5.8518	-4.6336	-4.5394	-0.8582	-1.5279	-5.8825	-2.5267	2.3978	2.6629	-5.4796	2.6476	3.5676	-7.9483	-0.6822	1.5896	-5.3784	0.333	0.333	0.333	0.333	0.333	0.333	0.333	0.333	0.333	0.333	0.333	0.333	0.333	0.333	0.333	0.333	0.333	0.333	0.333	6.327	1.5026	5.5059	15	228	1.38354057292327	0	1
"229"	15	12	4	1	1	0	3	-1	0	0.985	-3.4514	-8.111	-7.0391	4.0241	5.4585	2.4064	-1.9756	1.0614	8.6836	1.4529	-5.6846	8.7179	-0.4372	5.8712	-3.9139	0.0976	-0.7708	2.3199	4.4785	6.8887	0.4758	0.3919	0.2001	0.4407	0.2459	0.302	0.2242	0.3168	0.2023	0.4015	0.2498	0.5118	0.2402	0.3062	0.3427	0.3066	0.4693	0.299	0.3934	6.3201	1.462	2.4524	15	229	-0.0151136378100482	0	1
"230"	15	43	4	-4	-4	1	3	-1	1	0.953	-2.2586	-6.4252	-2.3249	-6.5656	-11.2969	1.4585	-0.9436	1.6352	-8.2063	6.3732	-17.0159	-6.034	-1.4811	-7.1865	-4.1685	-4.1569	-2.6569	0.1631	-3.4825	-4.2822	0.333	0.333	0.333	0.333	0.333	0.333	0.333	0.333	0.333	0.333	0.333	0.333	0.333	0.333	0.333	0.333	0.333	0.333	0.333	6.327	1.473	2.4373	15	230	-0.048140375327935	0	1
"231"	15	7	4	4	4	1	5	1	1	1.468	3.1918	5.5679	3.4214	4.2436	-0.5469	2.9115	-2.0524	11.6592	2.0239	5.525	-3.807	-4.7046	-2.0049	9.3248	4.7861	14.5596	2.9468	6.208	6.0009	8.8473	0.333	0.333	0.333	0.333	0.333	0.333	0.333	0.333	0.333	0.333	0.333	0.333	0.333	0.333	0.333	0.333	0.333	0.333	0.333	6.327	1.5322	3.0023	15	231	0.383900930192324	1	0
"232"	15	19	4	1	1	1	3	-1	0	0.796	-2.0953	-2.0249	-5.5209	5.9321	-5.0295	7.6874	0.1455	-2.6557	-2.1367	4.6548	1.0232	4.2719	-6.223	4.821	-1.7397	14.2861	0.1055	2.47	4.6608	-1.4865	0.333	0.333	0.333	0.333	0.333	0.333	0.333	0.333	0.333	0.333	0.333	0.333	0.333	0.333	0.333	0.333	0.333	0.333	0.333	6.327	1.4394	2.2472	15	232	-0.228156093137754	0	1
"233"	15	25	4	0	0	0	7	1	1	2.561	1.0835	-3.8779	-1.478	11.135	1.0154	-2.6744	4.2759	-0.0498	5.3973	-0.6247	-5.1489	1.8835	0.4736	0.3733	11.4831	-8.0274	-2.809	-2.3831	-3.5773	-5.5474	0.3118	0.4923	0.3881	0.2748	0.31	0.453	0.393	0.3422	0.2281	0.2818	0.212	0.3168	0.2228	0.2999	0.4002	0.3185	0.3662	0.2359	0.4866	6.334	1.6208	4.178	15	233	0.940397807217388	1	0
"234"	15	68	4	1	1	0	12	1	1	3.718	-1.2264	0.952	4.9817	2.8921	-4.694	-5.531	1.7146	-6.1003	5.6389	-2.6728	9.6777	5.0997	-9.9702	7.5041	1.7351	-0.6397	3.5061	1.01	0.3558	5.3134	0.3029	0.2572	0.3297	0.2349	0.4408	0.4055	0.2977	0.4198	0.3139	0.2141	0.4692	0.2329	0.2908	0.2427	0.2031	0.4309	0.3195	0.413	0.5047	6.3235	1.6921	5.4186	15	234	1.31318588929925	1	0
"235"	15	6	4	2	2	1	3	1	1	0.998	6.3877	4.0126	3.3564	0.9746	9.8025	-0.1944	1.5191	5.1109	1.0071	6.5943	-4.9382	1.714	-0.344	3.871	5.7923	7.5787	1.8527	-8.4083	-8.6989	4.9785	0.333	0.333	0.333	0.333	0.333	0.333	0.333	0.333	0.333	0.333	0.333	0.333	0.333	0.333	0.333	0.333	0.333	0.333	0.333	6.327	1.5827	2.5825	15	235	-0.00200200267067308	1	0
"236"	15	52	4	-1	-1	0	6	-1	1	1.786	2.6024	-3.6782	-2.1832	0.3799	6.2551	-0.2499	-0.296	2.4457	-13.892	-1.8324	1.4378	-4.7735	-10.6031	5.5942	-1.3591	4.3079	-4.2184	2.4128	-5.2113	1.9531	0.4046	0.3213	0.3621	0.2803	0.2046	0.4902	0.4174	0.2838	0.4172	0.2519	0.4437	0.2517	0.2131	0.2594	0.4053	0.3656	0.2846	0.4541	0.207	6.3178	1.4639	3.2701	15	236	0.579978482454307	0	1
"237"	15	42	4	4	4	0	6	1	1	1.681	5.8969	4.3649	2.4383	1.0681	16.5	4.7481	11.2294	5.7081	-4.6156	0.3738	-0.5781	6.0516	4.8732	1.1979	0.3508	-4.7456	7.7616	7.2152	6.0114	4.9291	0.4014	0.2437	0.3194	0.4219	0.2141	0.4526	0.2307	0.4359	0.2376	0.2634	0.228	0.4845	0.2898	0.2484	0.5162	0.294	0.4391	0.2647	0.3473	6.3325	1.4601	3.1483	15	237	0.519388854426479	1	0
"238"	15	53	4	0	0	0	7	1	0	2.128	2.1436	4.5383	1.9526	-0.1031	-6.2861	-0.8114	-6.4687	-7.4282	-3.6767	7.658	-2.8212	4.1291	7.545	4.4357	7.2986	-1.3772	-4.2414	2.1096	-8.1213	-0.7134	0.2466	0.4786	0.2309	0.3115	0.2674	0.401	0.2662	0.2158	0.4191	0.4561	0.27	0.2143	0.4026	0.4487	0.3248	0.2188	0.3376	0.3946	0.4325	6.337	1.4412	3.5784	15	238	0.755182571479398	1	0
"239"	15	11	4	0	0	0	4	-1	1	1.077	2.605	-3.5917	-0.7736	-12.2361	2.0774	2.4179	-3.6538	1.5312	-3.4877	1.2762	9.135	1.8349	0.2369	-2.1945	0.6429	-1.5165	-3.8547	9.8326	4.8259	-5.3593	0.3235	0.2037	0.2686	0.3461	0.2869	0.3708	0.2756	0.527	0.2843	0.3772	0.2594	0.2275	0.4184	0.476	0.2349	0.3072	0.3526	0.434	0.3507	6.3246	1.57	2.6614	15	239	0.0741793981742515	0	1
"240"	15	64	4	-4	-4	0	2	-1	1	0.794	-6.2756	-0.3058	-8.3264	-6.3215	-5.2179	-10.3509	-2.9746	-1.588	-9.595	6.1099	8.6615	-7.1152	-5.7337	-6.948	-6.4656	-1.9675	-3.1229	-7.6587	-3.9908	1.0427	0.4013	0.454	0.3931	0.2321	0.357	0.2924	0.2308	0.3087	0.2008	0.2645	0.2899	0.4006	0.2608	0.3998	0.3558	0.2274	0.4847	0.4064	0.3737	6.3336	1.5944	2.3953	15	240	-0.230671817735001	0	1
"241"	15	2	4	-2	-2	1	4	-1	1	1.003	-5.5162	0.333	-5.8695	-5.5448	-0.1588	-3.3593	4.6706	-7.9696	3.4056	-1.9838	-2.7233	8.8109	-2.3308	-0.6868	3.9662	-2.3053	-11.8022	-3.629	-9.1686	3.4077	0.333	0.333	0.333	0.333	0.333	0.333	0.333	0.333	0.333	0.333	0.333	0.333	0.333	0.333	0.333	0.333	0.333	0.333	0.333	6.327	1.6741	2.6872	15	241	0.00299550897979837	0	1
"242"	15	14	4	4	4	0	5	1	1	1.467	1.9178	2.712	12.7384	10.6952	-0.1447	1.5816	-0.6182	6.9706	7.3613	4.3512	0.0882	4.3081	-3.2295	1.0065	-0.7646	-0.096	0.1725	9.6342	13.7399	8.684	0.3811	0.3193	0.3995	0.316	0.2396	0.3139	0.4314	0.22	0.4839	0.2838	0.2529	0.4232	0.2119	0.2553	0.2942	0.3381	0.3956	0.2955	0.4718	6.3268	1.4224	2.9005	15	242	0.383219499160845	1	0
"243"	15	22	4	-4	-4	0	6	-1	1	1.972	-1.3258	-6.5059	-3.2309	-2.5927	-11.4157	-2.1824	4.0295	4.5836	-12.8944	-7.1627	0.8503	-5.2314	-6.4221	-1.2178	-10.6397	1.8115	-8.9817	-6.5473	1.5705	-6.7474	0.273	0.3478	0.2828	0.4908	0.2851	0.3206	0.234	0.4443	0.2851	0.3913	0.2105	0.3163	0.3609	0.5059	0.2987	0.2026	0.2876	0.4763	0.3092	6.3226	1.4035	3.3896	15	243	0.679048256180444	0	1
"244"	15	51	4	-2	-2	0	7	-1	1	2.091	-0.3199	-7.9795	1.4108	-7.5922	-0.6618	2.9452	-10.4971	5.3893	7.3054	0.6738	2.9326	-8.2942	-2.5805	-9.99	-1.7669	-3.676	-4.9047	0.1424	1.1271	-3.7333	0.4663	0.2609	0.4191	0.3108	0.3472	0.2261	0.2736	0.3273	0.2717	0.2352	0.334	0.2755	0.2447	0.4039	0.338	0.4718	0.1998	0.519	0.3972	6.3221	1.6926	3.7918	15	244	0.737642420446497	0	1
"245"	15	5	4	1	1	1	4	1	1	1.232	5.9658	2.5448	-3.0898	5.2585	-1.2111	-7.5045	-6.4533	6.997	0.6243	-4.3727	-6.1941	5.9857	-0.1137	2.4416	4.22	0.6665	3.2786	4.8354	9.6191	-5.3988	0.333	0.333	0.333	0.333	0.333	0.333	0.333	0.333	0.333	0.333	0.333	0.333	0.333	0.333	0.333	0.333	0.333	0.333	0.333	6.327	1.486	2.7162	15	245	0.208638865111328	1	0
"246"	15	62	4	2	2	1	15	1	1	4.896	0.1784	-2.7193	2.4788	4.3427	-2.5287	7.495	-8.2651	3.1445	5.1149	3.0392	8.3741	-4.2888	2.6446	7.1253	1.8115	-6.0131	3.8009	6.1628	10.9644	-1.4181	0.333	0.333	0.333	0.333	0.333	0.333	0.333	0.333	0.333	0.333	0.333	0.333	0.333	0.333	0.333	0.333	0.333	0.333	0.333	6.327	1.7295	6.6299	15	246	1.58841854521003	1	0
"247"	15	4	4	0	0	1	13	-1	1	4.032	3.5234	7.1626	3.7357	-6.5844	-1.4162	3.3792	1.7885	1.1362	-9.403	-0.7252	-9.7044	2.8347	9.5195	1.9438	3.2909	-3.2776	-2.2227	-3.7325	-1.1564	0.7053	0.333	0.333	0.333	0.333	0.333	0.333	0.333	0.333	0.333	0.333	0.333	0.333	0.333	0.333	0.333	0.333	0.333	0.333	0.333	6.327	1.6214	5.649	15	247	1.39426253076907	0	1
"248"	15	31	4	-1	-1	1	9	-1	1	2.865	3.0021	3.867	3.8285	-0.0202	-5.8063	5.3831	-2.0644	-7.9898	-6.4753	-7.7981	0.1464	4.0996	-2.6996	-9.2788	-2.4654	-4.5804	1.1286	5.9352	-3.3196	6.5638	0.333	0.333	0.333	0.333	0.333	0.333	0.333	0.333	0.333	0.333	0.333	0.333	0.333	0.333	0.333	0.333	0.333	0.333	0.333	6.327	1.5658	4.4322	15	248	1.0525683501667	0	1
"249"	15	63	4	4	4	1	8	1	1	2.371	2.1771	-2.8868	7.7198	1.256	5.8918	2.3101	9.6477	4.9313	-0.2273	-1.7289	1.0139	3.8375	-0.3479	-1.7862	11.9868	13.6562	10.4821	7.5947	-1.6086	5.1694	0.333	0.333	0.333	0.333	0.333	0.333	0.333	0.333	0.333	0.333	0.333	0.333	0.333	0.333	0.333	0.333	0.333	0.333	0.333	6.327	1.6004	3.9889	15	249	0.863311807083268	1	0
"250"	15	15	4	-4	-4	1	13	-1	1	4.288	-2.2938	-0.7256	1.9103	0.8886	-9.982	-6.8073	-7.7189	-6.9571	-8.3589	3.4861	-11.1195	-8.4789	-12.3993	-0.5265	-6.9535	-6.3755	-2.2006	-1.1473	2.4003	2.3471	0.333	0.333	0.333	0.333	0.333	0.333	0.333	0.333	0.333	0.333	0.333	0.333	0.333	0.333	0.333	0.333	0.333	0.333	0.333	6.327	1.4213	5.7215	15	250	1.4558204237685	0	1
"251"	15	46	4	0	0	1	8	-1	1	2.661	-4.6654	2.1101	-2.5418	-5.3068	-5.198	1.5288	-1.4745	-7.4804	1.4292	3.6928	6.5964	-10.1692	7.2269	7.8458	1.4624	7.3098	-0.3155	-1.5933	2.6597	-1.7864	0.333	0.333	0.333	0.333	0.333	0.333	0.333	0.333	0.333	0.333	0.333	0.333	0.333	0.333	0.333	0.333	0.333	0.333	0.333	6.327	1.5009	4.1784	15	251	0.978701991995552	0	1
"252"	15	23	4	-2	-2	0	5	-1	1	1.248	-3.2441	1.7712	-11.3258	-11.5631	-3.9618	-2.2244	-4.2546	-1.7232	2.4406	0.208	-3.1335	-0.2794	1.8379	1.8698	-5.8432	8.0567	-5.3272	5.3891	-4.5225	-5.8374	0.2152	0.3066	0.2228	0.3291	0.4387	0.2205	0.2674	0.2995	0.4394	0.5065	0.2038	0.3873	0.2954	0.387	0.492	0.3468	0.259	0.4158	0.3005	6.333	1.5065	2.7658	15	252	0.221542269947236	0	1
"253"	15	18	4	0	0	1	6	1	1	1.709	1.1257	7.0619	2.1184	-5.851	3.0475	2.2725	4.1079	10.5712	-3.4736	-1.2375	1.6424	1.1976	4.9723	-8.6882	-1.5121	3.4515	-7.3819	-5.0877	-3.9795	-2.3715	0.333	0.333	0.333	0.333	0.333	0.333	0.333	0.333	0.333	0.333	0.333	0.333	0.333	0.333	0.333	0.333	0.333	0.333	0.333	6.327	1.4386	3.1599	15	253	0.535908404133454	1	0
"254"	15	48	4	2	2	1	7	1	1	2	4.9546	-0.1072	11.7563	-0.7285	0.9876	-10.3307	-1.2553	1.8578	-6.3234	10.2576	3.4329	5.4014	0.9982	4.9127	-0.3588	1.9806	-0.3413	6.6296	0.0173	4.423	0.333	0.333	0.333	0.333	0.333	0.333	0.333	0.333	0.333	0.333	0.333	0.333	0.333	0.333	0.333	0.333	0.333	0.333	0.333	6.327	1.4941	3.5004	15	254	0.693147180559945	1	0
"255"	15	54	4	1	1	0	4	-1	0	1.23	-1.0321	-0.7183	-2.7741	0.361	1.5482	1.161	-2.9603	3.347	-3.6625	11.2991	2.6695	8.6966	6.8624	-0.6418	2.2024	-5.4523	-4.1936	-5.785	-1.9945	10.8186	0.2974	0.4273	0.2359	0.3385	0.2447	0.3487	0.5236	0.342	0.5115	0.2933	0.2323	0.2749	0.4178	0.2941	0.2585	0.3959	0.3358	0.2126	0.3466	6.3314	1.623	2.864	15	255	0.207014169384326	0	1
"256"	15	34	4	2	2	1	12	1	1	3.703	5.8472	-2.3655	2.9666	12.0528	-1.1095	-1.6141	0.5574	-0.3424	-0.5584	3.2972	-2.1888	5.6983	9.6209	-0.4244	-2.6859	4.3806	8.9756	-2.7517	-7.2775	6.33	0.333	0.333	0.333	0.333	0.333	0.333	0.333	0.333	0.333	0.333	0.333	0.333	0.333	0.333	0.333	0.333	0.333	0.333	0.333	6.327	1.5039	5.2203	15	256	1.30914330193148	1	0
"257"	15	13	4	2	2	0	3	1	1	0.783	6.3942	8.1038	4.5159	7.4138	-3.4359	10.9343	-1.2337	-4.5968	4.8217	-5.7037	2.1256	-3.7008	-0.5834	1.6247	-3.6613	-2.0744	-0.0114	6.6663	8.1819	4.5259	0.2257	0.3616	0.4691	0.515	0.2777	0.24	0.2768	0.4793	0.4102	0.3358	0.2592	0.3339	0.2459	0.2019	0.3872	0.4628	0.2732	0.3286	0.2447	6.3285	1.6197	2.4001	15	257	-0.244622582991334	1	0
"258"	15	9	4	-2	-2	0	20	-1	1	6.596	-3.7919	-2.6224	3.0346	5.7586	5.3149	-2.5777	-1.4367	-3.7071	-4.1332	-4.6858	-1.401	-0.8961	7.2176	-9.7146	3.3563	-9.3898	-1.1381	-2.6322	-11.9603	-2.7372	0.2593	0.4425	0.2044	0.3356	0.2017	0.3377	0.2745	0.4582	0.2606	0.3946	0.2802	0.5111	0.3034	0.239	0.3382	0.4221	0.3527	0.2329	0.4721	6.321	1.5797	8.1804	15	258	1.88646340469735	0	1
"259"	15	65	4	-2	-2	0	4	-1	1	1.294	-2.3293	-10.2413	6.073	0.5949	-4.3304	1.1139	-3.0668	0.9132	-9.6579	-11.9337	0.4605	-5.823	4.2204	-3.6123	4.2188	-6.0495	2.6764	0.3567	-0.5276	-3.4721	0.2668	0.4505	0.3942	0.5153	0.2999	0.2705	0.3379	0.3639	0.2858	0.4391	0.3049	0.3579	0.2112	0.2785	0.3574	0.2939	0.3401	0.2288	0.3265	6.323	1.4173	2.7116	15	259	0.257738196078709	0	1
"260"	15	8	4	-4	-4	0	13	-1	1	4.43	-1.166	-4.8502	1.3863	-4.6324	2.3317	0.1642	-5.891	-2.7298	-1.8357	-18.2671	-1.6367	0.9367	-2.1885	-0.7534	-6.0311	-13.7299	-1.7812	-6.5881	-6.4082	-6.7576	0.2683	0.3105	0.2386	0.3712	0.5302	0.4856	0.3222	0.4992	0.3608	0.2857	0.2044	0.256	0.5272	0.2708	0.3087	0.2202	0.4045	0.2084	0.2622	6.3348	1.4579	5.8808	15	260	1.48839958405704	0	1
"261"	15	57	4	-4	-4	1	7	1	0	2.011	0.2514	-9.4383	0.2265	-3.403	-7.0635	-2.6577	-7.4075	-7.3781	-1.2249	-5.872	-11.7486	-9.5119	-6.2058	-6.2424	5.7845	-10.1181	0.6667	6.3373	-2.8586	-3.9738	0.333	0.333	0.333	0.333	0.333	0.333	0.333	0.333	0.333	0.333	0.333	0.333	0.333	0.333	0.333	0.333	0.333	0.333	0.333	6.327	1.4452	3.4786	15	261	0.698632110790515	1	0
"262"	15	50	4	-4	-4	0	7	-1	1	2.144	-0.9488	-3.1217	-5.0157	-0.6676	-4.7079	7.0864	4.7395	-0.1508	-5.7127	-3.1745	-5.0443	-15.4217	-7.7684	-7.3236	-9.0234	-1.6795	-2.0595	-10.4811	-2.4886	-7.9926	0.3207	0.2352	0.3694	0.3066	0.3389	0.4813	0.3066	0.4635	0.2253	0.2963	0.3866	0.4851	0.2023	0.4461	0.2944	0.2382	0.3007	0.332	0.3039	6.333	1.6821	3.845	15	262	0.762673243208556	0	1
"263"	15	38	4	-1	-1	0	4	1	0	1.195	-0.259	7.2977	-8.4273	-2.366	-2.0458	4.6678	-0.2392	2.4747	-6.577	7.2727	-9.0224	-8.0067	-0.2971	5.5574	-6.1399	2.5571	-2.4182	0.1211	0.7748	-3.0501	0.3985	0.2441	0.3288	0.4063	0.2953	0.4626	0.2195	0.2737	0.3233	0.2936	0.2571	0.4752	0.4489	0.2006	0.4379	0.2173	0.3185	0.2576	0.4626	6.3213	1.6523	2.8624	15	263	0.178146185383474	1	0
"264"	15	56	4	4	4	0	5	1	1	1.518	8.9611	-5.1455	8.9878	5.9595	11.0614	9.5367	3.1606	1.7665	13.3581	3.775	3.3442	1.4036	-2.4214	4.3719	-2.3886	8.5072	0.6597	-2.7959	6.6705	2.1443	0.3985	0.2747	0.325	0.3524	0.4559	0.2917	0.4386	0.4103	0.2097	0.4166	0.3118	0.2328	0.4175	0.3276	0.2981	0.2062	0.4303	0.304	0.2221	6.3236	1.4369	2.9691	15	264	0.417393678973438	1	0
"265"	15	26	4	1	1	0	6	-1	0	2.108	-1.2809	1.4958	-0.4511	6.5354	-5.8086	-3.9263	-4.6327	8.229	-6.46	8.11	2.7633	0.3356	2.5822	0.7979	-5.5324	2.9325	7.3678	-2.9248	2.1926	8.9501	0.4449	0.2801	0.3095	0.3427	0.271	0.4714	0.2015	0.3327	0.2824	0.2358	0.393	0.219	0.4248	0.5144	0.3379	0.4818	0.216	0.3524	0.2108	6.3221	1.4394	3.5589	15	265	0.745739630679116	0	1
"266"	15	40	4	1	1	0	9	1	1	2.781	-1.3652	6.9685	-2.9268	4.2971	7.1514	-9.7891	-0.2837	-2.8231	-3.9672	4.7247	2.803	3.3059	1.9701	0.4583	6.0437	-5.5875	-5.8554	7.5167	3.6846	3.508	0.441	0.2001	0.2987	0.4904	0.2289	0.5221	0.3331	0.203	0.2786	0.3811	0.2983	0.4594	0.2125	0.2809	0.2154	0.3466	0.5027	0.3015	0.3309	6.3252	1.6353	4.4319	15	266	1.02281057525183	1	0
"267"	15	29	4	-4	-4	1	8	-1	1	2.57	-0.6082	3.6823	-11.5602	-9.5392	-2.7466	-5.9433	-8.1481	-9.5747	-11.0268	-1.9065	-5.5778	-5.5209	-1.8521	2.4228	-1.7327	-12.2711	3.5959	0.9625	-2.2128	-1.9772	0.333	0.333	0.333	0.333	0.333	0.333	0.333	0.333	0.333	0.333	0.333	0.333	0.333	0.333	0.333	0.333	0.333	0.333	0.333	6.327	1.4335	4.0046	15	267	0.943905898907128	0	1
"268"	15	3	4	-1	-1	1	5	-1	1	1.562	-5.0077	-0.1191	-4.202	-5.9704	-4.1516	4.1592	1.7733	-4.072	-0.8699	-6.886	-7.7085	-1.9202	-7.4344	2.6678	4.2304	-6.4057	9.0706	6.6101	4.2666	0.5693	0.333	0.333	0.333	0.333	0.333	0.333	0.333	0.333	0.333	0.333	0.333	0.333	0.333	0.333	0.333	0.333	0.333	0.333	0.333	6.327	1.543	3.1129	15	268	0.445967051417494	0	1
"269"	15	17	4	-1	-1	1	5	-1	1	1.511	-5.5936	-2.2885	1.6784	3.3557	-2.3801	-3.6096	9.0877	-7.0074	-5.0087	0.7397	-1.8071	-9.5908	1.4542	-1.4214	-5.7358	6.9305	-3.0177	6.1806	-4.7716	2.4438	0.333	0.333	0.333	0.333	0.333	0.333	0.333	0.333	0.333	0.333	0.333	0.333	0.333	0.333	0.333	0.333	0.333	0.333	0.333	6.327	1.4327	2.9446	15	269	0.412771683290602	0	1
"270"	15	1	4	-4	-4	1	4	-1	1	1.306	-2.2258	1.3064	-8.5665	6.168	-5.135	-5.3805	1.8415	-3.8174	-10.7815	1.5486	-4.4308	1.0044	-2.266	-16.7781	-5.2574	-2.8231	-3.9986	-7.8362	-7.312	-5.7272	0.333	0.333	0.333	0.333	0.333	0.333	0.333	0.333	0.333	0.333	0.333	0.333	0.333	0.333	0.333	0.333	0.333	0.333	0.333	6.327	1.5972	2.9069	15	270	0.266969030854239	0	1
"271"	15	33	4	1	1	1	5	-1	0	1.639	3.436	-5.4166	13.3045	-3.3618	6.3929	-3.0786	0.2681	1.6171	-5.0617	3.7073	-4.3103	6.0955	-1.8853	-2.8183	-0.5904	-1.5671	-3.425	6.8925	5.4243	3.2937	0.333	0.333	0.333	0.333	0.333	0.333	0.333	0.333	0.333	0.333	0.333	0.333	0.333	0.333	0.333	0.333	0.333	0.333	0.333	6.327	1.4224	3.0568	15	271	0.494086299761693	0	1
"272"	15	60	4	0	0	1	9	1	1	2.669	0.364	-2.1505	6.9299	-1.9348	-2.5171	3.7453	10.6872	0.5681	-1.4208	0.5686	4.5302	-5.9262	5.5866	-8.8785	0.8979	0.9626	-7.1452	-5.5287	-2.6844	3.9685	0.333	0.333	0.333	0.333	0.333	0.333	0.333	0.333	0.333	0.333	0.333	0.333	0.333	0.333	0.333	0.333	0.333	0.333	0.333	6.327	1.509	4.1865	15	272	0.981703870422387	1	0
"273"	15	16	4	-2	-2	1	13	-1	1	4.043	-0.3653	1.8785	-0.3002	-9.1012	-5.4612	-5.5957	3.2588	-3.8235	-7.3057	-2.6708	-16.2422	-1.6149	-3.9383	3.4999	2.8282	1.4005	-0.8095	2.0563	-3.7433	4.126	0.333	0.333	0.333	0.333	0.333	0.333	0.333	0.333	0.333	0.333	0.333	0.333	0.333	0.333	0.333	0.333	0.333	0.333	0.333	6.327	1.5871	5.6436	15	273	1.39698699065863	0	1
"274"	15	27	4	2	2	0	9	1	1	2.881	3.1006	5.2833	0.9923	3.6208	-2.9888	6.5711	5.9197	3.506	-0.3096	5.4493	13.7917	1.2058	-4.1272	-2.2664	7.2837	-1.0927	-0.2039	-6.9916	4.9949	-4.3471	0.4166	0.3613	0.2554	0.378	0.4406	0.3258	0.2992	0.2107	0.2904	0.4334	0.2782	0.4958	0.3268	0.2395	0.28	0.4292	0.2176	0.4463	0.2014	6.3261	1.5328	4.4316	15	274	1.05813745610239	1	0
"275"	15	20	4	2	2	1	3	1	1	0.989	5.0132	4.676	10.8368	-7.4441	5.228	1.261	6.5105	-0.7557	-4.7588	-0.7268	4.2716	6.3258	8.0785	4.6118	-6.7163	2.0545	-2.0823	-0.1655	5.7465	-3.0717	0.333	0.333	0.333	0.333	0.333	0.333	0.333	0.333	0.333	0.333	0.333	0.333	0.333	0.333	0.333	0.333	0.333	0.333	0.333	6.327	1.4001	2.4059	15	275	-0.0110609473594249	1	0
"276"	15	35	4	4	4	1	4	-1	0	1.157	-0.8512	-2.0363	-2.0911	10.5893	1.3334	3.553	7.5848	-2.055	5.1255	3.3753	6.8249	9.5826	15.0676	5.9125	7.2137	1.2417	-2.3761	7.538	-0.8246	5.8095	0.333	0.333	0.333	0.333	0.333	0.333	0.333	0.333	0.333	0.333	0.333	0.333	0.333	0.333	0.333	0.333	0.333	0.333	0.333	6.327	1.541	2.7078	15	276	0.14583044821154	0	1
"277"	15	49	4	4	4	1	17	1	1	5.464	2.143	-0.9328	9.5887	-6.1368	-2.8731	2.6125	4.9634	3.8874	0.4984	2.2008	-2.4391	1.6208	4.7379	6.7754	8.7839	8.7225	10.1205	13.4596	9.668	2.1085	0.333	0.333	0.333	0.333	0.333	0.333	0.333	0.333	0.333	0.333	0.333	0.333	0.333	0.333	0.333	0.333	0.333	0.333	0.333	6.327	1.649	7.1319	15	277	1.69818112226849	1	0
"278"	15	67	4	0	0	0	7	-1	1	2.176	-0.4002	1.4062	4.5454	-7.2925	-3.2528	1.0928	-5.2793	2.6811	-2.4205	3.0694	5.4998	6.1497	3.3055	-5.1334	-1.0438	-7.779	-0.7658	6.125	7.2787	-8.167	0.2274	0.5026	0.3977	0.3307	0.2472	0.3714	0.2351	0.5176	0.24	0.4012	0.2789	0.4265	0.2	0.4057	0.2816	0.4031	0.2987	0.343	0.2147	6.3232	1.4461	3.6263	15	278	0.777488328993696	0	1
"279"	15	39	4	0	0	0	8	1	1	2.88	-3.1687	4.4328	3.825	-0.2322	1.0435	-5.3313	2.0399	-5.2758	12.3761	0.0358	-4.7049	-7.034	1.2452	0.1901	-3.879	10.1649	-0.7122	-0.0717	-3.8809	-0.6279	0.2975	0.4685	0.4046	0.2555	0.5039	0.2272	0.4366	0.2907	0.4093	0.2339	0.4206	0.3202	0.2618	0.3382	0.427	0.2125	0.3233	0.2085	0.2826	6.3222	1.4281	4.3141	15	279	1.05779029414785	1	0
"280"	15	37	4	-2	-2	0	15	-1	1	5.136	1.8385	1.7027	4.5388	-1.7857	0.6398	2.8773	2.8474	-5.8661	-3.0255	-2.865	-6.6747	0.8605	-3.6289	-9.6434	0.4856	-3.8616	-3.1445	-11.9736	7.535	-9.6712	0.3516	0.3021	0.2689	0.3161	0.4726	0.2938	0.5317	0.2539	0.435	0.3344	0.2513	0.3343	0.4842	0.3199	0.2276	0.3311	0.2519	0.2252	0.3412	6.327	1.5514	6.6862	15	280	1.63627456638766	0	1
"281"	15	67	5	0	0	0	8	-1	0	2.348	0.1645	3.4882	-1.9186	7.3963	-1.0235	-2.7433	-3.779	6.8333	4.6491	-8.6889	1.6607	-9.5714	8.3035	-3.7365	-0.0507	1.1669	-1.8206	4.5068	0.1945	-5.5314	0.2857	0.2282	0.4652	0.3951	0.2142	0.3648	0.2594	0.3346	0.4244	0.4596	0.3644	0.463	0.214	0.3402	0.4856	0.2085	0.263	0.2046	0.3617	6.3362	1.7114	4.066	15	281	0.85356390196585	0	1
