"subNo"	"index"	"block"	"level"	"mean"	"periodicity"	"nEvents"	"answer"	"isCorrect"	"rt"	"s1"	"s2"	"s3"	"s4"	"s5"	"s6"	"s7"	"s8"	"s9"	"s10"	"s11"	"s12"	"s13"	"s14"	"s15"	"s16"	"s17"	"s18"	"s19"	"s20"	"t1"	"t2"	"t3"	"t4"	"t5"	"t6"	"t7"	"t8"	"t9"	"t10"	"t11"	"t12"	"t13"	"t14"	"t15"	"t16"	"t17"	"t18"	"t19"	"seqDuration"	"startInterval"	"trialDuration"	"pID"	"Trial"	"rtLog"	"right"	"left"
"1"	10	23	1	-2	-3.21	0	8	-1	1	2.568	-5.072	5.0368	-10.5273	-5.9471	-3.1332	-10.701	-6.5088	-0.6574	-1.2541	-5.2456	-5.9177	8.6694	-8.9595	-2.5425	-6.4108	1.7393	0.4145	-3.3284	0.0149	-4.8946	0.4904	0.3921	0.3202	0.2083	0.3312	0.4485	0.2958	0.2077	0.3895	0.3515	0.482	0.3909	0.2577	0.3186	0.2282	0.4147	0.2134	0.3497	0.2357	6.3261	1.6525	4.2183	10	1	0.943127385827715	0	1
"2"	10	68	1	1	1.605	0	9	1	1	2.574	-0.4919	-5.5373	-2.8333	-5.5536	0.5433	2.019	9.1854	6.5425	-2.935	-4.2365	5.9126	9.3815	2.786	-4.4211	2.1499	4.8745	5.8201	7.0532	3.9646	-2.4673	0.3388	0.3136	0.2716	0.2266	0.2655	0.3604	0.2362	0.4046	0.3075	0.2539	0.4314	0.5322	0.2384	0.341	0.2902	0.4869	0.5172	0.3043	0.2057	6.3262	1.4954	4.0912	10	2	0.945461109173935	1	0
"3"	10	57	1	-4	-6.42	1	4	-1	1	1.104	-6.0974	-10.1357	-9.3355	-17.0428	-6.4718	-7.5638	-6.2705	-0.8058	-5.2821	-2.6889	-8.5096	-0.8134	0.9559	-12.8905	-8.0835	-13.3943	-0.8552	-4.2752	-10.5261	-0.1245	0.333	0.333	0.333	0.333	0.333	0.333	0.333	0.333	0.333	0.333	0.333	0.333	0.333	0.333	0.333	0.333	0.333	0.333	0.333	6.327	1.6928	2.8044	10	3	0.0989399478549036	0	1
"4"	10	63	1	4	6.42	1	3	1	1	0.976	9.598	-1.3768	4.7131	10.7997	2.452	7.0092	7.054	8.5556	12.2268	4.5493	1.3091	8.4263	-0.0929	8.409	9.702	-0.0178	13.7703	16.6941	6.4396	0.0785	0.333	0.333	0.333	0.333	0.333	0.333	0.333	0.333	0.333	0.333	0.333	0.333	0.333	0.333	0.333	0.333	0.333	0.333	0.333	6.327	1.6417	2.6266	10	4	-0.0242926925690446	1	0
"5"	10	5	1	1	1.605	1	5	1	1	1.423	1.1398	0.6815	10.1754	2.6801	6.5458	0.2169	-4.3663	-8.7174	1.9097	4.3889	8.827	-4.5122	-2.1917	9.1866	-1.9636	1.855	-1.6325	4.8007	4.7618	-1.0375	0.333	0.333	0.333	0.333	0.333	0.333	0.333	0.333	0.333	0.333	0.333	0.333	0.333	0.333	0.333	0.333	0.333	0.333	0.333	6.327	1.4119	2.8406	10	5	0.352767319107715	1	0
"6"	10	54	1	1	1.605	0	8	1	1	2.572	-0.2189	0.2762	-1.9505	-3.3065	2.5295	-4.5523	9.1464	3.8853	6.4209	-2.7761	-7.4027	6.0565	3.4954	-0.4179	-6.9247	6.6831	8.7357	7.0641	0.8776	4.3472	0.4339	0.2313	0.3837	0.2702	0.441	0.2571	0.3158	0.4804	0.2565	0.4477	0.2954	0.4571	0.2431	0.4111	0.2592	0.3285	0.2746	0.2483	0.2881	6.3231	1.4267	4.0062	10	6	0.944683806375373	1	0
"7"	10	55	1	2	3.21	0	5	1	1	1.567	3.5251	5.045	4.4261	0.5339	0.9709	8.9751	11.3598	7.8369	1.3079	-2.5872	8.6644	2.9605	5.3507	0.1184	0.8009	3.1191	-8.6467	2.9175	11.7333	-3.3527	0.2328	0.5264	0.2828	0.2023	0.403	0.3187	0.288	0.2609	0.3108	0.3582	0.434	0.5041	0.2211	0.2714	0.323	0.3992	0.2905	0.2521	0.4447	6.3241	1.725	3.3011	10	7	0.449162963373884	1	0
"8"	10	60	1	0	0	1	14	-1	1	4.331	2.5879	-0.7985	1.7106	-6.5633	-6.703	8.1926	0.2471	1.9274	-4.1213	-3.4421	6.2724	-8.8999	-7.5744	-1.3631	2.9025	1.8426	3.5478	4.5895	-2.0064	7.172	0.333	0.333	0.333	0.333	0.333	0.333	0.333	0.333	0.333	0.333	0.333	0.333	0.333	0.333	0.333	0.333	0.333	0.333	0.333	6.327	1.5883	5.932	10	8	1.46579846223249	0	1
"9"	10	35	1	4	6.42	1	3	1	1	0.974	10.2707	10.2691	3.4682	5.2354	5.7669	12.4048	16.9662	-4.1361	-1.8781	10.2338	5.1397	9.0146	10.4462	1.3295	5.878	7.2224	3.7877	5.3488	11.005	2.46	0.333	0.333	0.333	0.333	0.333	0.333	0.333	0.333	0.333	0.333	0.333	0.333	0.333	0.333	0.333	0.333	0.333	0.333	0.333	6.327	1.6767	2.6578	10	9	-0.026343975339602	1	0
"10"	10	20	1	2	3.21	1	4	1	1	1.117	-0.2439	10.9564	1.0875	2.5354	-0.0255	8.7068	6.1236	4.3799	6.1339	8.1595	5.7334	-0.7267	-2.6593	9.2817	7.8252	-4.1064	-6.2028	7.9168	-2.0463	0.3598	0.333	0.333	0.333	0.333	0.333	0.333	0.333	0.333	0.333	0.333	0.333	0.333	0.333	0.333	0.333	0.333	0.333	0.333	0.333	6.327	1.6369	2.7675	10	10	0.110646520087064	1	0
"11"	10	22	1	-4	-6.42	0	3	-1	1	0.669	-8.614	-1.2829	-1.9162	-5.9975	-0.9943	-17.0112	-3.5765	-16.0032	-4.7773	-12.0483	0.021	-0.4902	-7.9388	-11.3402	-3.3458	-5.5239	-4.8591	-5.0652	-12.2203	-6.9099	0.2482	0.3281	0.2531	0.203	0.344	0.4628	0.2781	0.2067	0.2912	0.2595	0.4283	0.4823	0.2134	0.3282	0.386	0.4194	0.5056	0.3954	0.2867	6.3202	1.6209	2.2863	10	11	-0.401971218853909	0	1
"12"	10	51	1	-2	-3.21	0	5	-1	1	1.644	-5.7181	-2.0871	0.5817	-5.8375	-1.6642	-6.1322	-12.0842	-6.187	3.3903	-11.3948	-5.7769	-0.5837	1.6956	-0.728	-6.0769	-7.2282	0.3857	-7.2899	7.27	1.4953	0.3328	0.4727	0.3634	0.4006	0.2292	0.3339	0.4344	0.3192	0.2882	0.5105	0.2651	0.2073	0.334	0.2502	0.2106	0.2989	0.2608	0.3726	0.4379	6.3222	1.6814	3.3281	10	12	0.497132296633988	0	1
"13"	10	61	1	1	1.605	1	8	1	1	2.337	-0.4347	-3.9058	-3.7113	4.1461	2.7969	0.6843	2.1315	2.92	0.8178	8.885	11.7183	-1.1394	-1.0292	7.6508	-8.5213	4.8266	3.8731	-1.0401	6.8141	-4.2631	0.333	0.333	0.333	0.333	0.333	0.333	0.333	0.333	0.333	0.333	0.333	0.333	0.333	0.333	0.333	0.333	0.333	0.333	0.333	6.327	1.728	4.0707	10	13	0.848868055556721	1	0
"14"	10	21	1	4	6.42	1	3	1	1	0.969	8.0978	4.1731	3.9137	3.4331	9.2525	7.5205	8.7473	11.7508	15.8485	0.3829	2.2027	7.9211	9.2039	1.5408	-2.7525	2.5817	0.4079	6.8527	10.3842	15.6348	0.333	0.333	0.333	0.333	0.333	0.333	0.333	0.333	0.333	0.333	0.333	0.333	0.333	0.333	0.333	0.333	0.333	0.333	0.333	6.327	1.6093	2.5866	10	14	-0.0314906670913709	1	0
"15"	10	10	1	-1	-1.605	0	12	-1	1	3.911	3.0644	-0.6074	3.3408	-0.6402	-3.3779	-6.2413	3.303	-1.7462	-10.0926	3.457	-7.3476	3.625	-9.0009	-2.8643	-9.3526	4.5169	-1.279	-2.3355	-3.3495	5.2998	0.2405	0.4639	0.378	0.4469	0.2007	0.278	0.4319	0.3937	0.528	0.254	0.2283	0.4382	0.3901	0.2065	0.3212	0.2054	0.3452	0.2563	0.3283	6.3351	1.6509	5.5787	10	15	1.36379309577338	0	1
"16"	10	36	1	-4	-6.42	0	3	-1	1	0.708	-9.3393	-8.754	-2.4074	-7.9739	-3.4856	-0.8057	-9.2118	-14.0259	-9.815	-3.03	-4.297	4.6458	-1.2682	-11.0214	-14.657	-9.0004	0.3819	-6.4716	-12.0275	-5.8771	0.2371	0.341	0.3102	0.3896	0.3348	0.2966	0.3221	0.3583	0.2281	0.3513	0.4233	0.2503	0.4411	0.2135	0.2486	0.5027	0.38	0.2371	0.4683	6.3341	1.4174	2.1422	10	16	-0.345311185288417	0	1
"17"	10	34	1	2	3.21	1	4	1	1	1.317	0.6564	8.6119	2.6325	6.6685	-5.35	0.2672	5.176	-0.541	7.3523	4.9232	-1.1338	2.1485	-1.0638	0.3484	9.2572	1.6468	4.5569	5.5059	15.6676	-4.5236	0.333	0.333	0.333	0.333	0.333	0.333	0.333	0.333	0.333	0.333	0.333	0.333	0.333	0.333	0.333	0.333	0.333	0.333	0.333	6.327	1.6277	2.9509	10	17	0.275356422761144	1	0
"18"	10	67	1	0	0	0	12	1	1	4.058	-4.7425	-3.7637	-5.2296	5.2497	4.5048	-0.9971	5.7858	-1.5655	5.6246	-5.0094	4.1546	10.0601	1.9934	-5.333	-6.2607	3.3353	-4.6138	2.0286	-0.6487	-5.5221	0.295	0.4382	0.5033	0.3225	0.2138	0.4345	0.2187	0.3158	0.4385	0.362	0.2241	0.3117	0.2856	0.2282	0.2768	0.3567	0.422	0.4861	0.2015	6.3351	1.6427	5.709	10	18	1.40069024140362	1	0
"19"	10	66	1	-1	-1.605	0	10	-1	1	2.994	0.9587	-2.2974	-6.401	2.3787	-5.1732	-8.8723	-7.733	-4.79	0.2191	4.3434	-7.3628	-5.8525	-2.0271	6.1663	8.6686	-0.5835	-5.2743	0.1513	3.3017	-2.9812	0.2557	0.4067	0.3709	0.3266	0.2193	0.4204	0.2898	0.2343	0.2979	0.3718	0.2757	0.3651	0.2036	0.5042	0.4236	0.2526	0.4828	0.2693	0.3542	6.3242	1.4375	4.4448	10	19	1.09661028599744	0	1
"20"	10	4	1	0	0	1	15	-1	0	4.715	-3.0606	-5.2711	4.6751	4.7489	-8.3824	1.0718	4.4063	-6.4041	2.4631	1.4796	-0.9578	-3.1499	-10.0044	9.1108	2.3625	4.1228	1.4673	-1.731	6.0496	-2.677	0.333	0.333	0.333	0.333	0.333	0.333	0.333	0.333	0.333	0.333	0.333	0.333	0.333	0.333	0.333	0.333	0.333	0.333	0.333	6.327	1.6198	6.3495	10	20	1.55074891608542	0	1
"21"	10	14	1	4	6.42	0	4	1	1	1	9.7298	6.6653	9.7016	3.0602	-0.0285	3.993	9.1981	17.7803	5.273	-2.8795	9.0944	8.8465	9.3286	6.1664	7.17	4.8055	7.6095	11.875	5.0322	-4.861	0.3949	0.317	0.2186	0.4624	0.2093	0.474	0.3315	0.2094	0.2595	0.2214	0.3406	0.4111	0.2726	0.4925	0.5191	0.2616	0.3439	0.2233	0.3552	6.3179	1.6489	2.6506	10	21	0	1	0
"22"	10	48	1	2	3.21	1	9	1	1	2.895	-0.0236	3.9673	9.3732	-1.3304	-2.4852	-2.0516	5.1295	7.2608	7.5368	8.5149	3.9433	6.7994	-0.25	8.1534	4.6808	4.2354	1.0879	-8.424	-3.2755	10.8035	0.333	0.333	0.333	0.333	0.333	0.333	0.333	0.333	0.333	0.333	0.333	0.333	0.333	0.333	0.333	0.333	0.333	0.333	0.333	6.327	1.6876	4.596	10	22	1.06298511102496	1	0
"23"	10	62	1	2	3.21	1	12	1	1	3.823	5.5485	1.1341	-0.6047	2.5835	-2.8239	-0.0784	-4.2687	4.7876	5.3606	0.4117	12.0829	4.9309	-8.0701	3.6856	2.7009	9.5556	6.3987	4.4215	8.3446	10.0412	0.333	0.333	0.333	0.333	0.333	0.333	0.333	0.333	0.333	0.333	0.333	0.333	0.333	0.333	0.333	0.333	0.333	0.333	0.333	6.327	1.625	5.4567	10	23	1.34103545471428	1	0
"24"	10	29	1	-4	-6.42	1	6	-1	1	1.958	-2.9777	-1.3716	-2.9795	-5.7273	-12.5722	-15.8284	-0.966	-10.6149	-1.7664	-2.892	-1.708	-7.1005	-9.385	-8.1941	-7.5738	-2.4001	-5.6318	-14.5335	-0.3172	-13.9509	0.333	0.333	0.333	0.333	0.333	0.333	0.333	0.333	0.333	0.333	0.333	0.333	0.333	0.333	0.333	0.333	0.333	0.333	0.333	6.327	1.6999	3.6583	10	24	0.671923544108319	0	1
"25"	10	69	1	2	3.21	0	4	1	1	1.125	7.6917	2.5679	10.5188	6.4477	-3.0965	3.6289	-2.4215	7.021	6.5231	11.9781	5.2052	-0.235	1.8299	2.9911	-4.7992	4.0745	2.2788	4.1103	-7.9956	5.4499	0.2189	0.2496	0.3278	0.3665	0.4002	0.3016	0.2141	0.2883	0.5269	0.2897	0.2037	0.3247	0.3711	0.3396	0.376	0.5234	0.2237	0.409	0.3749	6.33	1.4675	2.5921	10	25	0.117783035656383	1	0
"26"	10	6	1	2	3.21	1	4	1	1	1.184	0.4106	7.2732	2.7171	-0.2397	15.4676	9.7088	4.0818	-0.2856	3.8417	-8.8953	7.3348	8.4184	0.5151	1.1053	1.8388	3.6076	1.9935	2.866	-2.7366	3.5548	0.333	0.333	0.333	0.333	0.333	0.333	0.333	0.333	0.333	0.333	0.333	0.333	0.333	0.333	0.333	0.333	0.333	0.333	0.333	6.327	1.5019	2.6848	10	26	0.168898536461814	1	0
"27"	10	2	1	-2	-3.21	1	7	1	0	2.065	-4.4748	-3.7674	-6.5822	-3.0739	8.2615	-4.6175	-5.2623	-4.2544	-4.0014	-4.3341	-8.5446	8.4767	-1.4964	-6.8626	-6.7161	4.3593	-5.5734	-6.0451	-9.8937	-1.5085	0.333	0.333	0.333	0.333	0.333	0.333	0.333	0.333	0.333	0.333	0.333	0.333	0.333	0.333	0.333	0.333	0.333	0.333	0.333	6.327	1.6379	3.7159	10	27	0.725130226412996	1	0
"28"	10	32	1	0	0	1	11	1	1	3.61	0.1277	2.1298	-2.9562	-7.15	6.6126	-2.5792	-1.3141	5.7578	5.9295	1.7768	2.632	5.2497	-1.7264	6.7217	-2.8365	3.4798	-0.3463	-6.4462	-10.6233	-5.9404	0.333	0.333	0.333	0.333	0.333	0.333	0.333	0.333	0.333	0.333	0.333	0.333	0.333	0.333	0.333	0.333	0.333	0.333	0.333	6.327	1.4063	5.0274	10	28	1.28370777234479	1	0
"29"	10	18	1	0	0	1	14	-1	1	4.564	-3.4866	2.0242	4.4889	2.5533	-3.1523	-5.0526	1.4637	-0.2127	-3.2019	3.665	-5.6462	-8.0133	1.5069	-5.2141	4.1766	-7.2446	6.671	10.2416	5.5795	-2.3402	0.333	0.333	0.333	0.333	0.333	0.333	0.333	0.333	0.333	0.333	0.333	0.333	0.333	0.333	0.333	0.333	0.333	0.333	0.333	6.327	1.5606	6.1317	10	29	1.51819943199983	0	1
"30"	10	11	1	0	0	0	9	-1	0	2.734	-2.4233	7.9379	0.7471	7.5927	0.6495	-1.9671	3.0735	-12.0592	3.7745	0.7977	-0.0323	-4.9545	9.7977	-3.3214	0.0557	-0.2148	-2.8957	1.2074	-3.4708	-2.8201	0.2045	0.2579	0.227	0.2825	0.4252	0.2618	0.3953	0.2156	0.493	0.4247	0.2921	0.4579	0.3312	0.2454	0.4483	0.3044	0.3952	0.2262	0.4402	6.3282	1.4565	4.2012	10	30	1.00576573830176	0	1
"31"	10	16	1	-2	-3.21	1	10	-1	1	3.255	-4.5972	-1.2591	4.186	-0.7954	-0.2758	-1.8021	-0.9039	-3.4894	-8.6555	0.1041	-4.0382	-4.2786	-2.6456	-3.2417	9.4939	-11.0324	-7.2766	-5.6379	-12.4383	-5.4433	0.333	0.333	0.333	0.333	0.333	0.333	0.333	0.333	0.333	0.333	0.333	0.333	0.333	0.333	0.333	0.333	0.333	0.333	0.333	6.327	1.4942	4.7561	10	31	1.18019227566053	0	1
"32"	10	31	1	-1	-1.605	1	12	-1	1	3.668	-0.6439	2.77	-0.1225	0.2595	-0.8401	-6.3841	-5.8884	-5.4633	-7.1066	4.1204	-1.0637	6.7574	1.8721	-10.1682	-8.922	-1.8862	-8.1815	6.068	0.7225	2.3791	0.333	0.333	0.333	0.333	0.333	0.333	0.333	0.333	0.333	0.333	0.333	0.333	0.333	0.333	0.333	0.333	0.333	0.333	0.333	6.327	1.5328	5.2019	10	32	1.29964655439422	0	1
"33"	10	7	1	4	6.42	1	4	1	1	1.257	3.1496	12.9744	10.2765	3.6107	2.0913	5.1609	4.9509	-0.8676	15.4217	3.8558	10.0183	-3.7463	2.9736	6.3163	9.8551	6.6554	16.6348	6.8702	8.5232	4.3855	0.333	0.333	0.333	0.333	0.333	0.333	0.333	0.333	0.333	0.333	0.333	0.333	0.333	0.333	0.333	0.333	0.333	0.333	0.333	6.327	1.4988	2.758	10	33	0.22872792960811	1	0
"34"	10	50	1	-4	-6.42	0	4	-1	1	1.254	-2.7574	-0.6707	-15.4014	-5.7015	-12.4157	0.4491	-5.1051	-6.0675	-10.1136	-12.2377	-3.4343	-4.7396	-6.9891	-6.3845	-8.3395	-5.9326	3.6833	-10.3665	-1.9146	-14.8208	0.2572	0.4078	0.3335	0.4411	0.2038	0.2624	0.3367	0.3939	0.441	0.3349	0.2212	0.4304	0.3042	0.4224	0.374	0.2515	0.2848	0.2007	0.4239	6.3254	1.4908	2.7544	10	34	0.226338442210729	0	1
"35"	10	19	1	1	1.605	1	8	1	1	2.347	3.7586	4.4669	2.6711	5.2695	-3.2259	6.3234	-1.7241	12.454	-0.3891	7.5793	2.0192	-6.2814	-5.06	-0.3453	4.6528	2.1572	1.7456	-7.9719	2.3198	3.5406	0.333	0.333	0.333	0.333	0.333	0.333	0.333	0.333	0.333	0.333	0.333	0.333	0.333	0.333	0.333	0.333	0.333	0.333	0.333	6.327	1.4083	3.7641	10	35	0.853137916868886	1	0
"36"	10	8	1	-4	-6.42	0	3	-1	1	0.796	-7.7989	1.6972	-13.1701	-7.8356	-5.9587	1.4569	-19.5818	0.2443	-8.8257	-8.5478	-5.0135	-5.1549	-11.1886	-5.1091	-3.8745	-10.6417	-8.9148	-5.8982	-2.5001	-3.191	0.3357	0.2852	0.3859	0.4259	0.272	0.5283	0.2565	0.3539	0.2835	0.3544	0.275	0.5147	0.2146	0.3884	0.3595	0.277	0.3497	0.2077	0.2598	6.3277	1.6898	2.4973	10	36	-0.228156093137754	0	1
"37"	10	33	1	1	1.605	1	5	1	1	1.522	-1.167	5.609	4.9813	9.6118	-6.6499	-1.7597	7.8596	-2.8052	-1.2966	3.8584	1.4373	-7.4956	-1.3534	8.6993	2.8792	-6.0653	2.7623	4.427	3.4556	6.0997	0.333	0.333	0.333	0.333	0.333	0.333	0.333	0.333	0.333	0.333	0.333	0.333	0.333	0.333	0.333	0.333	0.333	0.333	0.333	6.327	1.5628	3.0896	10	37	0.420025259439494	1	0
"38"	10	47	1	1	1.605	1	8	1	1	2.55	1.7643	5.4705	-3.9354	-2.133	5.8565	-1.7591	6.7943	-2.3067	-6.0223	-0.8608	0.0208	1.9165	-3.5808	9.4395	0.9061	10.234	10.1202	3.9614	-2.9822	-0.2982	0.333	0.333	0.333	0.333	0.333	0.333	0.333	0.333	0.333	0.333	0.333	0.333	0.333	0.333	0.333	0.333	0.333	0.333	0.333	6.327	1.629	4.1842	10	38	0.936093359170335	1	0
"39"	10	59	1	-1	-1.605	1	14	-1	1	4.396	0.2902	5.7335	0.7373	-3.7767	-0.5481	-4.8904	-8.479	8.3136	-4.1685	-6.3699	-6.9135	-1.1665	-7.4143	-4.2314	-6.5247	-1.3315	7.8919	2.7286	-5.6135	2.9081	0.333	0.333	0.333	0.333	0.333	0.333	0.333	0.333	0.333	0.333	0.333	0.333	0.333	0.333	0.333	0.333	0.333	0.333	0.333	6.327	1.5045	5.9133	10	39	1.48069503654137	0	1
"40"	10	13	1	2	3.21	0	5	1	1	1.693	1.8314	8.3599	-0.8299	6.1727	1.914	-6.2055	10.5539	-1.1003	0.9489	6.637	12.7046	9.9546	5.2531	1.0945	4.3583	1.6845	-2.3557	-3.8094	0.8518	7.2008	0.3593	0.4995	0.233	0.3606	0.2806	0.3353	0.2346	0.2084	0.2608	0.508	0.3442	0.2846	0.4833	0.2018	0.2369	0.2772	0.4916	0.2251	0.5037	6.3284	1.5907	3.2934	10	40	0.526502103150998	1	0
"41"	10	38	1	-1	-1.605	0	6	-1	1	1.43	-0.8965	1.0343	-7.5773	-4.3559	-3.7139	-11.4623	-2.1944	-6.2618	2.5693	3.9727	5.7409	2.4881	-11.308	0.4748	2.4798	2.0122	2.1511	1.6191	0.3002	-8.14	0.2687	0.2	0.3549	0.2313	0.2814	0.3406	0.2236	0.4122	0.3835	0.227	0.39	0.2611	0.3703	0.4083	0.3306	0.4711	0.3685	0.3283	0.4819	6.3332	1.534	2.9809	10	41	0.357674444271816	0	1
"42"	10	37	1	-2	-3.21	0	6	-1	1	2.019	-3.3688	-4.9075	-0.9918	0.9303	-8.6851	-5.9942	-7.3716	4.4009	-9.9413	-4.2647	4.9005	-9.958	-0.6497	-4.9064	-8.8897	-5.0107	1.5533	7.4509	-2.1922	-5.4771	0.396	0.3607	0.3161	0.2414	0.5062	0.2289	0.3593	0.2256	0.3373	0.4314	0.2268	0.5295	0.2822	0.2248	0.3801	0.262	0.5278	0.2244	0.2579	6.3185	1.5943	3.6201	10	42	0.7026023393307	0	1
"43"	10	64	1	-4	-6.42	0	4	-1	1	1.338	-4.4718	-5.212	1.9277	-8.7034	-14.6341	-4.9143	-14.632	-10.5634	-9.8477	-9.731	-6.5679	-8.0018	0.3002	-1.8036	2.1483	-4.8492	-3.161	-5.8101	-5.0608	-12.9707	0.3195	0.4417	0.2666	0.3747	0.2751	0.2398	0.4526	0.2864	0.2248	0.4523	0.5076	0.317	0.2456	0.3887	0.4189	0.2707	0.2227	0.3456	0.2729	6.323	1.6492	3.0057	10	43	0.291175961706037	0	1
"44"	10	44	1	-2	-3.21	1	3	-1	1	0.671	-8.164	-15.8814	-2.1698	1.9318	-4.2112	0.3505	-1.9869	3.2402	-6.2635	-4.1421	-0.5463	-7.2011	-10.8791	3.4279	1.4318	-7.8748	1.1902	-3.747	-2.4611	0.0019	0.333	0.333	0.333	0.333	0.333	0.333	0.333	0.333	0.333	0.333	0.333	0.333	0.333	0.333	0.333	0.333	0.333	0.333	0.333	6.327	1.4443	2.1216	10	44	-0.398986142010455	0	1
"45"	10	43	1	-4	-6.42	1	4	-1	1	1.116	-9.2952	-1.5439	-5.0315	-7.3503	-8.7921	-2.0625	3.0485	1.49	-6.5625	-6.8313	-6.8162	-1.484	-2.8859	-13.8262	-10.6527	-15.632	-13.8359	-7.1305	-3.0441	-10.9048	0.333	0.333	0.333	0.333	0.333	0.333	0.333	0.333	0.333	0.333	0.333	0.333	0.333	0.333	0.333	0.333	0.333	0.333	0.333	6.327	1.5456	2.6672	10	45	0.109750863959119	0	1
"46"	10	49	1	4	6.42	1	2	1	1	0.628	11.2324	5.5861	9.817	2.3145	10.3843	6.1737	6.2838	9.4487	13.6833	7.3262	10.495	8.6461	8.8577	-0.2615	5.9913	5.5175	-4.8366	12.9428	-0.8974	0.7232	0.333	0.333	0.333	0.333	0.333	0.333	0.333	0.333	0.333	0.333	0.333	0.333	0.333	0.333	0.333	0.333	0.333	0.333	0.333	6.327	1.4965	2.1287	10	46	-0.465215112513938	1	0
"47"	10	39	1	0	0	0	13	1	1	4.4	-3.9255	2.3154	-2.6718	-2.3858	-1.8549	-2.6859	-4.2441	-4.6603	-6.428	6.5348	4.7689	6.7819	-0.3311	0.5528	0.874	0.4553	7.2988	7.4123	-11.5066	3.7733	0.5257	0.227	0.3143	0.231	0.4967	0.3756	0.2625	0.2939	0.2322	0.5043	0.2825	0.3824	0.4828	0.3258	0.2273	0.3143	0.255	0.3738	0.2281	6.3354	1.4811	5.884	10	47	1.48160454092422	1	0
"48"	10	15	1	-4	-6.42	1	4	-1	1	1.005	-9.7849	-4.1552	-2.7559	-10.9127	-4.7314	-12.1987	-7.0022	-5.9198	-6.8103	-10.8024	-12.5167	-1.4366	-1.2773	-16.3628	-3.2926	-3.8535	-4.9892	-7.3825	-8.0346	5.9554	0.333	0.333	0.333	0.333	0.333	0.333	0.333	0.333	0.333	0.333	0.333	0.333	0.333	0.333	0.333	0.333	0.333	0.333	0.333	6.327	1.5517	2.5555	10	48	0.00498754151103897	0	1
"49"	10	56	1	4	6.42	0	4	1	1	0.892	9.9423	13.5557	7.9141	11.614	8.9077	-1.8713	0.7997	0.2276	7.7009	8.2962	3.1229	6.9334	7.6993	2.9006	11.5199	7.7923	6.1674	-1.6283	0.7216	14.8658	0.2267	0.4365	0.2051	0.371	0.2481	0.3103	0.4293	0.3755	0.2098	0.2389	0.4172	0.3478	0.2875	0.4352	0.323	0.3535	0.4772	0.4327	0.2026	6.3278	1.6964	2.5929	10	49	-0.114289146402128	1	0
"50"	10	40	1	1	1.605	0	17	1	1	5.418	-2.3715	-3.9701	-3.3379	10.1952	-0.323	7.0633	3.2398	8.6893	-4.1659	-3.333	-5.4528	2.7367	-4.7633	9.1732	2.9326	4.4013	3.7284	5.1051	-1.0915	1.746	0.4322	0.2736	0.3826	0.2263	0.4299	0.3546	0.2523	0.3294	0.3023	0.2631	0.3435	0.2465	0.4113	0.4666	0.2045	0.4754	0.4467	0.2667	0.2274	6.3347	1.4687	6.8852	10	50	1.6897267436629	1	0
"51"	10	27	1	2	3.21	0	4	1	1	1.446	1.2459	10.892	5.6224	-0.8063	7.2603	3.4466	6.5336	3.3974	0.186	2.2483	-1.1363	-0.0432	10.0281	9.6064	11.3678	-4.0003	-6.6953	4.705	-2.2955	2.4709	0.2139	0.396	0.5257	0.3798	0.285	0.2063	0.4051	0.3554	0.4536	0.3094	0.3877	0.4642	0.2583	0.3382	0.211	0.2901	0.2075	0.2714	0.3644	6.3228	1.5282	2.9969	10	51	0.368801123736573	1	0
"52"	10	25	1	0	0	0	4	1	1	0.99	2.5031	12.3383	2.3622	-1.9807	-3.9771	-0.2077	1.438	-2.1859	4.4555	-0.6336	-6.9546	-5.0229	-7.4361	9.777	-3.6908	4.3551	-1.7588	-0.1925	-3.1162	-0.6429	0.213	0.2426	0.2939	0.4376	0.264	0.2078	0.239	0.4785	0.3975	0.2113	0.2653	0.4589	0.216	0.4358	0.2297	0.4867	0.2433	0.4891	0.5235	6.3336	1.4487	2.4575	10	52	-0.0100503358535015	1	0
"53"	10	53	1	0	0	0	7	1	1	1.972	-1.868	7.8149	-1.5063	-0.0789	-6.5093	10.546	0.8534	0.6566	-9.2672	-0.7197	1.2553	4.0419	-2.2978	3.8737	6.6861	0.5794	-1.1457	-4.083	-4.9161	-5.6253	0.3111	0.2302	0.3446	0.2705	0.2009	0.3745	0.5169	0.2379	0.2658	0.372	0.2369	0.4245	0.3485	0.4291	0.3144	0.4798	0.3072	0.3662	0.2872	6.3183	1.4489	3.4394	10	53	0.679048256180444	1	0
"54"	10	45	1	-1	-1.605	1	6	-1	1	1.981	-3.237	-3.1474	-9.629	4.1593	0.7062	-1.4393	5.745	5.7295	1.0365	-4.3127	-6.3193	-10.8563	-0.7415	4.5144	1.9806	-3.0882	-5.9999	0.5938	1.8012	-8.3306	0.333	0.333	0.333	0.333	0.333	0.333	0.333	0.333	0.333	0.333	0.333	0.333	0.333	0.333	0.333	0.333	0.333	0.333	0.333	6.327	1.4825	3.4818	10	54	0.683601767716414	0	1
"55"	10	12	1	1	1.605	0	15	1	1	4.808	3.2752	-4.6373	1.1603	-3.2562	-1.0057	1.2243	1.0814	3.2494	2.2637	-3.5398	11.8243	0.868	10.3646	2.9784	-8.2355	8.009	7.2301	-2.2529	2.3279	0.7619	0.2844	0.3827	0.2692	0.23	0.5322	0.3021	0.3848	0.2971	0.3304	0.2768	0.3561	0.4485	0.3502	0.2556	0.3884	0.2418	0.2967	0.2548	0.4507	6.3326	1.6171	6.442	10	55	1.57028119723291	1	0
"56"	10	41	1	2	3.21	0	16	1	1	5.183	-0.6859	5.4436	2.9924	2.9896	-5.847	5.4015	3.8153	-7.1327	1.4107	3.4993	7.9405	0.6992	6.8687	9.9995	1.287	13.306	8.2099	-2.4298	4.623	2.4575	0.3088	0.4135	0.278	0.2039	0.3389	0.5253	0.3893	0.2091	0.4399	0.3248	0.4694	0.2708	0.3383	0.2332	0.2907	0.5011	0.2496	0.2095	0.3265	6.3206	1.5477	6.7343	10	56	1.64538403920757	1	0
"57"	10	28	1	4	6.42	0	5	1	1	1.309	9.5082	-3.6517	-0.0781	3.913	2.3296	7.0236	7.8552	14.3852	6.821	-0.5527	7.9375	2.981	10.4002	7.2975	9.0028	9.1693	0.453	10.8926	8.7931	15.1733	0.2256	0.2973	0.2153	0.333	0.3021	0.5011	0.2419	0.2723	0.4177	0.2765	0.5156	0.2106	0.3713	0.2346	0.5119	0.3661	0.2784	0.43	0.3182	6.3196	1.6075	2.926	10	57	0.269263486927763	1	0
"58"	10	9	1	-2	-3.21	0	4	-1	1	1.231	-0.7802	-8.7139	-2.478	-8.1361	-4.6471	2.8256	-3.7101	2.4859	-3.0032	-6.2682	6.9287	-6.0014	4.1436	-12.421	-10.721	-2.1917	-3.9605	-4.9653	-2.8222	-1.209	0.2715	0.339	0.2241	0.5227	0.4033	0.2629	0.3977	0.2792	0.2465	0.2768	0.3198	0.4378	0.4042	0.3058	0.2416	0.2907	0.3676	0.4395	0.3061	6.3368	1.5196	2.7645	10	58	0.207826847202317	0	1
"59"	10	1	1	-4	-6.42	1	3	-1	1	0.812	-5.663	-10.8248	-5.1232	-9.8119	-7.2887	-6.9756	-7.5179	3.8068	-4.9084	-6.4054	-17.8815	-2.3329	-10.2183	0.4997	-4.8344	-15.6792	-1.4657	-5.2127	-2.1335	-6.9659	0.333	0.333	0.333	0.333	0.333	0.333	0.333	0.333	0.333	0.333	0.333	0.333	0.333	0.333	0.333	0.333	0.333	0.333	0.333	6.327	1.6692	2.4791	10	59	-0.208254938820459	0	1
"60"	10	26	1	1	1.605	0	19	1	1	5.82	-1.9854	8.418	-1.8656	-3.0863	-4.2268	5.0444	-1.642	5.3518	4.9503	6.5784	2.2746	3.8969	-2.9899	-5.3191	0.1481	-4.5168	6.6457	7.2891	10.197	-2.5954	0.4614	0.3336	0.2159	0.3258	0.2853	0.3896	0.4351	0.2707	0.2433	0.3047	0.2679	0.3143	0.2162	0.379	0.2221	0.36	0.4147	0.3525	0.5299	6.3219	1.6938	7.5208	10	60	1.76130026174335	1	0
"61"	10	70	1	4	6.42	0	6	1	1	2.087	6.3534	3.9387	9.0977	-2.9966	11.4907	11.6071	1.6596	8.8415	13.1216	14.6587	8.4784	3.7232	1.764	11.0662	-4.1834	8.4672	5.6368	2.7335	7.5534	5.1219	0.5031	0.4712	0.3015	0.3391	0.235	0.4813	0.2723	0.4236	0.336	0.4063	0.2497	0.2766	0.3739	0.2265	0.2616	0.2349	0.369	0.3196	0.2419	6.3231	1.4872	3.5712	10	61	0.735727628095064	1	0
"62"	10	52	1	-1	-1.605	0	5	1	0	1.591	-0.113	11.2633	-5.5724	-1.6725	-2.0317	-6.2145	-2.797	-4.3094	1.0603	4.8252	-11.3797	-1.938	3.8388	-7.3868	-0.1274	1.702	0.4738	-3.6227	-5.6095	-3.4575	0.2386	0.468	0.3067	0.2704	0.3164	0.2327	0.2046	0.2955	0.4156	0.489	0.3989	0.3421	0.401	0.4766	0.3163	0.2882	0.2292	0.3443	0.294	6.328	1.5512	3.1422	10	62	0.46436274935565	1	0
"63"	10	42	1	4	6.42	0	8	1	1	2.696	2.0315	5.8532	12.8847	3.2497	5.5127	10.1851	5.3961	4.6355	11.1058	9.6087	3.547	5.3291	-3.9772	1.3592	6.1395	15.1645	-1.1213	6.682	12.4403	12.7148	0.4846	0.2851	0.4802	0.2213	0.4696	0.279	0.3918	0.3058	0.3956	0.2855	0.2417	0.4061	0.3356	0.2819	0.2166	0.283	0.3491	0.2661	0.3513	6.3299	1.4255	4.1302	10	63	0.991769193050061	1	0
"64"	10	58	1	-2	-3.21	1	8	-1	1	2.654	-4.1342	7.5734	-8.097	-5.884	-3.7332	1.2941	-16.2296	-1.6249	-5.2939	-2.7307	-6.5354	-1.2502	-1.4405	4.0995	0.4482	-1.0403	-2.3547	-6.3716	-6.3545	-4.7328	0.333	0.333	0.333	0.333	0.333	0.333	0.333	0.333	0.333	0.333	0.333	0.333	0.333	0.333	0.333	0.333	0.333	0.333	0.333	6.327	1.4728	4.1385	10	64	0.976067935910016	0	1
"65"	10	3	1	-1	-1.605	1	6	-1	1	1.865	-3.6603	-6.7016	2.0732	4.1935	-7.8452	-8.0647	-1.4604	2.6541	2.5085	0.3213	-0.273	-3.6686	4.3794	-5.4638	-9.5457	-1.762	0.8432	6.1201	-10.0932	2.5254	0.333	0.333	0.333	0.333	0.333	0.333	0.333	0.333	0.333	0.333	0.333	0.333	0.333	0.333	0.333	0.333	0.333	0.333	0.333	6.327	1.515	3.3992	10	65	0.623261053095779	0	1
"66"	10	30	1	-2	-3.21	1	5	-1	1	1.571	-0.8095	-0.1514	-4.2918	-6.1413	-6.6023	6.0874	-5.2258	0.9785	-2.2438	-8.2559	1.7596	-10.8595	-5.8583	-11.3989	2.1993	-9.7021	-1.6146	2.4102	-6.7469	0.8092	0.333	0.333	0.333	0.333	0.333	0.333	0.333	0.333	0.333	0.333	0.333	0.333	0.333	0.333	0.333	0.333	0.333	0.333	0.333	6.327	1.5906	3.1719	10	66	0.451712359273484	0	1
"67"	10	17	1	-1	-1.605	1	8	-1	1	2.436	-3.0012	-0.0157	6.2433	0.2208	2.3105	-2.4782	-7.8996	-1.2238	-1.4196	-7.6152	-5.7036	-4.9058	-7.6462	3.5902	6.9256	7.1806	-4.8228	-8.115	0.4032	-4.7068	0.333	0.333	0.333	0.333	0.333	0.333	0.333	0.333	0.333	0.333	0.333	0.333	0.333	0.333	0.333	0.333	0.333	0.333	0.333	6.327	1.626	4.0699	10	67	0.890357349847651	0	1
"68"	10	65	1	-2	-3.21	0	8	-1	1	2.555	-1.5574	-3.0867	0.716	-4.8893	-4.1979	1.2781	-11.6639	-1.16	-11.2222	-3.2686	8.5884	-8.7069	-6.184	0.0722	-4.4363	-3.6411	-2.9819	-10.2267	2.3027	0.4527	0.3844	0.2964	0.3248	0.2555	0.491	0.2691	0.4067	0.3698	0.2189	0.2531	0.3914	0.3399	0.2109	0.3448	0.3766	0.3376	0.2802	0.3752	0.4055	6.3316	1.7072	4.2728	10	68	0.938052223655668	0	1
"69"	10	46	1	0	0	1	4	-1	0	1.315	2.4298	-5.289	-4.994	1.8275	0.3794	3.5388	-3.4518	5.482	-2.4269	-1.7602	-5.5273	9.9628	0.5002	-6.1876	-8.7087	3.4305	4.3896	5.7168	-3.7973	3.4621	0.333	0.333	0.333	0.333	0.333	0.333	0.333	0.333	0.333	0.333	0.333	0.333	0.333	0.333	0.333	0.333	0.333	0.333	0.333	6.327	1.718	3.0328	10	69	0.273836665629728	0	1
"70"	10	24	1	-1	-1.605	0	20	-1	1	6.643	2.3533	1.4489	-10.8049	2.0878	1.171	0.2472	-1.2938	7.4422	-3.8604	-2.1961	1.567	0.4641	-7.1684	-4.9791	-5.1809	-1.1291	-5.6271	-1.0463	-12.2952	5.4022	0.3171	0.2463	0.4113	0.3111	0.4813	0.2869	0.3952	0.4611	0.2254	0.453	0.2874	0.4634	0.3369	0.2074	0.2434	0.3045	0.2075	0.4608	0.2331	6.333	1.5384	8.1935	10	70	1.8935636686831	0	1
"71"	10	15	2	-4	-6.42	1	6	-1	1	1.703	-9.9164	-11.4474	-1.8935	0.1781	-5.6392	-11.6356	-9.7012	-11.8372	-7.5751	-11.5582	-10.0692	4.0609	-5.8702	0.3491	-1.1892	-5.4153	-14.3815	-6.8962	-5.5856	-1.766	0.333	0.333	0.333	0.333	0.333	0.333	0.333	0.333	0.333	0.333	0.333	0.333	0.333	0.333	0.333	0.333	0.333	0.333	0.333	6.327	1.5703	3.2868	10	71	0.532391401680551	0	1
"72"	10	31	2	-1	-1.605	1	17	1	0	5.377	-1.2696	-2.9245	4.8773	-8.6408	0.8765	-7.0006	-2.7923	-8.3539	-8.4222	7.9933	0.9805	1.3615	-2.3725	-0.1541	2.4834	5.6564	-3.415	-4.0266	-8.8838	0.3924	0.333	0.333	0.333	0.333	0.333	0.333	0.333	0.333	0.333	0.333	0.333	0.333	0.333	0.333	0.333	0.333	0.333	0.333	0.333	6.327	1.6779	7.061	10	72	1.68213059782754	1	0
"73"	10	42	2	4	6.42	0	3	1	1	0.908	6.1914	8.4563	0.2872	2.7399	-4.7877	5.4815	9.8139	11.3775	15.4856	1.3559	4.3806	14.0888	6.7841	6.7506	8.3702	4.9395	4.3115	1.1558	14.4653	5.9244	0.3449	0.5022	0.2017	0.4073	0.2124	0.2386	0.3593	0.3919	0.2497	0.4434	0.3505	0.5128	0.2238	0.3877	0.3499	0.2787	0.2242	0.3983	0.2554	6.3327	1.582	2.5088	10	73	-0.0965109003808437	1	0
"74"	10	28	2	4	6.42	0	3	1	1	0.845	6.1956	1.6033	7.7729	7.1028	1.3055	-0.6603	6.03	6.221	-0.1899	9.9717	19.1975	13.096	8.8755	6.026	3.1341	2.9214	15.4304	3.2015	6.9755	5.9779	0.339	0.2903	0.2632	0.5295	0.3164	0.2621	0.3806	0.2464	0.2102	0.4873	0.2032	0.3862	0.208	0.4607	0.4079	0.298	0.5059	0.2179	0.3098	6.3226	1.7184	2.5793	10	74	-0.168418651624963	1	0
"75"	10	18	2	0	0	1	16	-1	0	5.247	-2.9854	-6.4605	-5.5141	4.5883	2.3444	4.2159	12.5335	-5.4782	-3.9949	0.856	1.4222	1.6232	2.561	2.1121	-1.7291	-1.724	4.899	2.5215	-2.2413	-9.5093	0.333	0.333	0.333	0.333	0.333	0.333	0.333	0.333	0.333	0.333	0.333	0.333	0.333	0.333	0.333	0.333	0.333	0.333	0.333	6.327	1.4306	6.6813	10	75	1.65765648470457	0	1
"76"	10	3	2	-1	-1.605	1	15	1	0	4.829	0.9656	10.174	2.9492	-8.3632	-3.3637	2.1947	-0.2309	0.8525	-9.4681	-4.379	-1.983	5.346	2.9577	-4.3337	-7.1796	-3.4257	-4.1649	0.7776	-1.8234	-9.3459	0.333	0.333	0.333	0.333	0.333	0.333	0.333	0.333	0.333	0.333	0.333	0.333	0.333	0.333	0.333	0.333	0.333	0.333	0.333	6.327	1.6429	6.4802	10	76	1.5746394068914	1	0
"77"	10	40	2	1	1.605	0	6	1	1	1.87	4.1634	4.5821	8.7606	2.5005	4.8108	9.1304	-6.291	1.4946	-0.51	0.39	7.3463	-1.4161	-6.7975	-1.9463	-4.2223	2.2684	9.4636	-5.3878	-1.4743	4.1554	0.4523	0.2185	0.307	0.4102	0.3144	0.2046	0.4017	0.2852	0.2203	0.4886	0.218	0.4457	0.251	0.3622	0.2587	0.3037	0.5215	0.3978	0.2579	6.3194	1.6679	3.5374	10	77	0.625938430866495	1	0
"78"	10	2	2	-2	-3.21	1	11	-1	1	3.422	-7.1167	-2.3266	7.5978	-7.7536	-9.0155	-1.0027	-0.3729	-10.1851	-5.838	4.589	0.9798	-2.1145	3.3821	-3.6174	-0.6882	-7.252	-1.0128	-10.7956	-4.3203	-7.4069	0.333	0.333	0.333	0.333	0.333	0.333	0.333	0.333	0.333	0.333	0.333	0.333	0.333	0.333	0.333	0.333	0.333	0.333	0.333	6.327	1.4691	4.8899	10	78	1.23022517547	0	1
"79"	10	7	2	4	6.42	1	7	1	1	2.215	10.5038	2.965	-3.3496	13.8872	0.4789	11.5653	2.7956	7.2534	9.6986	7.9452	5.2423	11.2321	4.7861	16.9112	5.2857	8.0547	5.2767	1.5537	4.4668	1.5992	0.333	0.333	0.333	0.333	0.333	0.333	0.333	0.333	0.333	0.333	0.333	0.333	0.333	0.333	0.333	0.333	0.333	0.333	0.333	6.327	1.4003	3.6153	10	79	0.795252403497099	1	0
"80"	10	39	2	0	0	0	5	-1	1	1.539	-0.2712	-7.5393	-4.2443	-3.1355	-2.9423	0.6743	-7.4163	-3.9512	4.351	-1.1246	3.0763	10.9885	-0.8294	-8.6543	3.3008	3.6045	4.0862	5.8348	2.9488	-0.5364	0.4772	0.2811	0.2143	0.507	0.2939	0.5017	0.3174	0.3998	0.2622	0.3066	0.4314	0.3434	0.2823	0.2386	0.277	0.4344	0.2574	0.2858	0.2087	6.3202	1.516	3.0563	10	80	0.431132854856742	0	1
"81"	10	55	2	2	3.21	0	8	1	1	2.397	-0.6524	0.6496	-6.0201	-4.0697	7.7993	-0.8297	10.5282	-0.6959	3.9725	1.7159	5.5332	1.2124	8.925	2.4548	4.1454	-1.3878	13.3564	8.3184	3.1378	5.2732	0.2082	0.4288	0.4558	0.2973	0.3549	0.2984	0.2595	0.3544	0.2591	0.503	0.47	0.265	0.3807	0.2404	0.2869	0.2359	0.3538	0.3146	0.3558	6.3225	1.4899	3.8976	10	81	0.874217955452247	1	0
"82"	10	49	2	4	6.42	1	5	1	1	1.62	2.6215	1.8422	16.2214	5.0288	11.202	5.0576	8.9069	7.5872	12.5304	-0.6983	4.0276	2.0581	1.0735	0.9023	1.1712	10.8005	9.8815	14.2281	4.283	8.2639	0.333	0.333	0.333	0.333	0.333	0.333	0.333	0.333	0.333	0.333	0.333	0.333	0.333	0.333	0.333	0.333	0.333	0.333	0.333	6.327	1.5372	3.1709	10	82	0.482426149244293	1	0
"83"	10	23	2	-2	-3.21	0	10	-1	1	3.106	1.0075	-2.7366	3.4232	1.4203	-4.2532	4.3233	2.0555	-14.5366	-2.8556	-6.5582	-6.4642	-6.1538	-2.0267	-9.4726	1.1204	-9.0132	-0.1356	-6.5439	-7.1524	1.6618	0.206	0.4391	0.3714	0.5243	0.2304	0.3507	0.2601	0.286	0.397	0.319	0.379	0.3038	0.2174	0.2909	0.3452	0.4735	0.3629	0.2309	0.3421	6.3297	1.4571	4.5737	10	83	1.1333357247265	0	1
"84"	10	37	2	-2	-3.21	0	4	-1	1	1.155	-7.8835	4.6481	-10.4515	-3.956	1.4509	-4.4511	-7.5602	3.1153	0.1929	-4.7284	1.0068	3.8578	-2.1441	-3.5849	-3.1994	-14.5708	-2.8254	0.329	-5.4842	-6.5043	0.322	0.2153	0.4532	0.2265	0.4428	0.3323	0.2599	0.3421	0.2488	0.4704	0.269	0.2425	0.3448	0.466	0.3372	0.2618	0.2363	0.3933	0.456	6.3202	1.5086	2.6724	10	84	0.144100343973757	0	1
"85"	10	54	2	1	1.605	0	9	1	1	2.708	4.6259	0.6175	2.4058	0.7349	4.0085	8.9184	10.5611	7.5789	-3.4637	-6.5605	-0.3354	5.206	0.7176	2.7526	0.6265	-8.8597	5.8837	3.4225	-5.3584	-0.3123	0.2407	0.4327	0.2324	0.2797	0.2215	0.3534	0.406	0.5089	0.2241	0.3969	0.4645	0.5147	0.2246	0.2696	0.3448	0.2069	0.3462	0.2022	0.4539	6.3239	1.6579	4.3751	10	85	0.996210355050029	1	0
"86"	10	16	2	-2	-3.21	1	5	-1	1	1.575	-1.779	-9.5506	4.2325	0.3341	-4.4659	-3.7123	4.6297	-7.8893	1.3319	-1.8459	-5.7108	-10.5089	-4.3624	2.9609	-1.2573	-5.3459	-2.4956	-14.0065	1.3468	-5.6661	0.333	0.333	0.333	0.333	0.333	0.333	0.333	0.333	0.333	0.333	0.333	0.333	0.333	0.333	0.333	0.333	0.333	0.333	0.333	6.327	1.6352	3.2263	10	86	0.454255272277596	0	1
"87"	10	41	2	2	3.21	0	6	-1	0	1.857	6.4891	3.1673	0.3498	-6.5324	5.9962	7.2199	9.8543	-2.941	0.0507	2.9153	0.329	-0.4043	8.7964	1.7673	8.9703	-2.3129	7.8908	-1.849	3.5304	11.4526	0.3238	0.4414	0.3271	0.2959	0.3362	0.4154	0.3743	0.2301	0.3259	0.3562	0.4447	0.5171	0.2583	0.288	0.2187	0.3689	0.342	0.2614	0.2081	6.3335	1.5662	3.4244	10	87	0.618962282370569	0	1
"88"	10	8	2	-4	-6.42	0	4	-1	1	0.959	-7.8534	-7.1751	-6.1785	-10.1002	-10.331	-11.7151	-3.3205	-18.4093	-0.621	-3.5958	-10.3426	-3.4378	-5.7035	-7.1642	-6.6865	0.329	-7.89	-6.3421	-8.1723	4.9372	0.2687	0.2024	0.4355	0.2278	0.5244	0.2467	0.3804	0.3139	0.4956	0.2227	0.4901	0.3105	0.4689	0.502	0.2133	0.291	0.2094	0.309	0.2227	6.335	1.4655	2.4264	10	88	-0.0418642040986989	0	1
"89"	10	51	2	-2	-3.21	0	16	-1	1	5.068	1.1426	0.449	-2.5429	-1.4193	-5.0772	-1.5238	4.4285	-8.5781	8.7335	-7.5479	-6.7345	-3.2097	-14.2372	-8.5034	-3.8309	-4.4276	-4.227	-1.0071	-3.7937	-0.456	0.4685	0.3534	0.4312	0.2094	0.481	0.4377	0.3467	0.3736	0.2107	0.2745	0.3933	0.2881	0.2245	0.3026	0.2519	0.336	0.2676	0.3227	0.3606	6.3339	1.5756	6.652	10	89	1.62294626245889	0	1
"90"	10	47	2	1	1.605	1	5	1	1	1.49	4.5497	8.6058	1.2325	4.6563	-1.0565	2.5719	-7.9761	8.1521	-4.7763	-7.1	3.5732	11.3019	3.5148	2.2971	-1.5663	1.4582	1.8271	0.1727	2.2751	-3.4233	0.333	0.333	0.333	0.333	0.333	0.333	0.333	0.333	0.333	0.333	0.333	0.333	0.333	0.333	0.333	0.333	0.333	0.333	0.333	6.327	1.4281	2.924	10	90	0.398776119957368	1	0
"91"	10	34	2	2	3.21	1	13	1	1	4.103	-0.0729	-6.4887	8.8254	1.6222	4.9622	4.5132	-2.6652	5.8052	5.023	-2.1054	15.9738	1.6813	3.5072	6.9275	-0.7092	4.6798	-0.5657	9.2673	1.76	4.102	0.333	0.333	0.333	0.333	0.333	0.333	0.333	0.333	0.333	0.333	0.333	0.333	0.333	0.333	0.333	0.333	0.333	0.333	0.333	6.327	1.6725	5.7701	10	91	1.41171841346005	1	0
"92"	10	9	2	-2	-3.21	0	11	-1	1	3.781	-4.56	-1.383	-2.8483	9.7335	2.5723	-2.4837	-1.0736	-0.8246	-8.2914	-3.5746	-5.6863	0.0351	-8.1042	-7.0097	-3.0359	0.5339	1.2499	-12.5123	-8.4544	-7.792	0.4545	0.3365	0.2034	0.2558	0.2923	0.5002	0.3153	0.2827	0.5257	0.2246	0.5074	0.3838	0.4243	0.2284	0.2969	0.2504	0.376	0.2027	0.2591	6.32	1.6667	5.4481	10	92	1.3299885249088	0	1
"93"	10	70	2	4	6.42	0	6	1	1	1.664	3.816	4.6792	16.2361	6.5622	8.792	2.2693	-3.4385	11.9224	6.4012	-1.1124	4.1738	0.8318	8.9456	2.5731	7.687	16.0749	6.2319	9.685	9.6111	5.6962	0.3307	0.3924	0.3089	0.2258	0.3065	0.239	0.3162	0.2487	0.4713	0.3561	0.311	0.2744	0.3646	0.2701	0.4826	0.3232	0.35	0.4952	0.2648	6.3315	1.5521	3.2317	10	93	0.509224342399017	1	0
"94"	10	59	2	-1	-1.605	1	8	-1	1	2.651	-5.7307	0.4489	-8.5685	3.9702	7.4872	-8.9808	-1.8076	-3.0725	5.0463	-1.7909	4.7219	0.3657	1.9351	-1.0041	-6.3601	-6.4824	-3.1489	-9.9232	-2.042	1.5663	0.333	0.333	0.333	0.333	0.333	0.333	0.333	0.333	0.333	0.333	0.333	0.333	0.333	0.333	0.333	0.333	0.333	0.333	0.333	6.327	1.5876	4.2515	10	94	0.974936927306888	0	1
"95"	10	44	2	-2	-3.21	1	5	-1	1	1.511	-5.9963	-1.3136	2.605	-3.0418	5.7822	-1.7989	-2.9876	-10.8376	-6.6218	-7.8716	-0.1724	-7.1835	-5.8006	4.2037	-6.8297	-2.7019	4.0538	-10.6855	-9.1592	0.3621	0.333	0.333	0.333	0.333	0.333	0.333	0.333	0.333	0.333	0.333	0.333	0.333	0.333	0.333	0.333	0.333	0.333	0.333	0.333	6.327	1.7278	3.2453	10	95	0.412771683290602	0	1
"96"	10	65	2	-2	-3.21	0	3	-1	1	0.911	-7.6441	-5.6371	-5.5224	-5.6359	-9.8389	-0.1137	-6.79	-3.0169	-12.019	-1.2585	10.4793	-8.4478	3.596	-0.1708	-3.1695	-2.711	-2.7402	-1.3558	-4.3234	1.3927	0.3731	0.2136	0.351	0.2159	0.3413	0.4259	0.225	0.2995	0.4245	0.3505	0.2827	0.5077	0.4074	0.3521	0.4338	0.2574	0.2156	0.346	0.3138	6.3368	1.4993	2.4289	10	96	-0.0932123817221787	0	1
"97"	10	35	2	4	6.42	1	3	1	1	0.754	11.2595	3.2828	15.4676	6.6944	1.369	1.764	8.6509	2.2811	11.6788	3.5695	2.6634	1.9564	1.5686	13.2801	8.9646	5.3123	5.928	16.3032	3.2246	2.1275	0.333	0.333	0.333	0.333	0.333	0.333	0.333	0.333	0.333	0.333	0.333	0.333	0.333	0.333	0.333	0.333	0.333	0.333	0.333	6.327	1.5827	2.3543	10	97	-0.282362910974181	1	0
"98"	10	29	2	-4	-6.42	1	5	-1	1	1.344	-3.4994	-8.66	-8.1978	-16.4199	-9.1616	-12.6543	-1.6671	-13.2351	-5.0948	-3.72	-7.7863	-2.6426	-0.4992	-1.6031	-0.3739	-7.5059	-11.4544	-3.4453	-10.5383	1.0629	0.333	0.333	0.333	0.333	0.333	0.333	0.333	0.333	0.333	0.333	0.333	0.333	0.333	0.333	0.333	0.333	0.333	0.333	0.333	6.327	1.457	2.8112	10	98	0.295650242100958	0	1
"99"	10	1	2	-4	-6.42	1	9	-1	1	2.902	-4.4596	-3.5074	-0.187	-11.8317	0.6408	-12.0222	-1.9041	-6.1059	-6.6306	-15.8135	-4.6409	-8.8722	-7.8218	-9.6777	1.9268	-7.7161	-1.3911	-5.7979	-5.6132	-16.292	0.333	0.333	0.333	0.333	0.333	0.333	0.333	0.333	0.333	0.333	0.333	0.333	0.333	0.333	0.333	0.333	0.333	0.333	0.333	6.327	1.6866	4.6024	10	99	1.065400154462	0	1
"100"	10	32	2	0	0	1	17	1	1	5.643	-4.4885	-6.1545	0.4184	4.0684	-6.2788	-4.0089	-4.3679	-0.4719	-1.6524	-0.344	-6.883	4.8456	1.0463	2.2168	14.0867	-1.5017	-0.1657	6.4967	-1.148	3.2385	0.333	0.333	0.333	0.333	0.333	0.333	0.333	0.333	0.333	0.333	0.333	0.333	0.333	0.333	0.333	0.333	0.333	0.333	0.333	6.327	1.4339	7.0769	10	100	1.730415838987	1	0
"101"	10	19	2	1	1.605	1	7	1	1	2.265	2.4615	-4.6226	0.0221	-0.9029	5.6433	-0.9339	-5.6983	11.086	4.9281	-4.5627	-1.8487	8.5801	0.2364	9.4713	-0.2638	1.0165	7.7228	-0.498	3.899	-5.1632	0.333	0.333	0.333	0.333	0.333	0.333	0.333	0.333	0.333	0.333	0.333	0.333	0.333	0.333	0.333	0.333	0.333	0.333	0.333	6.327	1.4727	3.7495	10	101	0.817574758934997	1	0
"102"	10	46	2	0	0	1	10	-1	0	3.249	-2.0253	5.6242	2.3967	6.2047	-4.6322	2.3705	-11.7607	-1.0446	-2.3505	7.8216	-4.7199	4.573	0.1821	-5.7126	-0.3598	-5.0824	1.51	7.4813	1.379	-2.5603	0.333	0.333	0.333	0.333	0.333	0.333	0.333	0.333	0.333	0.333	0.333	0.333	0.333	0.333	0.333	0.333	0.333	0.333	0.333	6.327	1.5358	4.7832	10	102	1.17834725668696	0	1
"103"	10	26	2	1	1.605	0	17	1	1	5.593	2.2519	4.8329	6.6583	12.8064	4.6938	0.6811	3.9113	4.9692	2.0065	-3.1871	4.5576	-4.8822	-3.0049	0.455	0.0206	3.7221	0.2085	-9.2215	-4.8371	5.0916	0.2589	0.3125	0.257	0.3164	0.4179	0.5279	0.4413	0.3554	0.2278	0.2021	0.4497	0.5281	0.2093	0.4841	0.2151	0.3016	0.2562	0.3372	0.236	6.3345	1.512	7.11	10	103	1.72151581583945	1	0
"104"	10	67	2	0	0	0	16	-1	0	5.112	0.0547	-0.3443	5.4672	-0.0315	-5.4656	6.0171	-0.0246	-8.9014	4.3269	0.1152	3.0095	-8.6981	-0.9172	-8.4199	-0.0891	-2.1686	2.6615	-0.2944	9.3425	4.9036	0.2339	0.3595	0.2881	0.2265	0.2846	0.2589	0.4803	0.3568	0.2218	0.4935	0.2304	0.2816	0.4357	0.2814	0.5292	0.4552	0.2527	0.2932	0.3623	6.3256	1.6688	6.7961	10	104	1.63159071707523	0	1
"105"	10	60	2	0	0	1	11	1	0	3.414	-3.2003	6.8615	-0.7684	1.8225	-3.228	4.8763	-3.5237	-2.5907	8.2583	2.6083	5.3649	1.9447	9.2588	-5.0833	-5.7176	-2.1799	-5.0877	-6.4159	3.2976	-4.8682	0.333	0.333	0.333	0.333	0.333	0.333	0.333	0.333	0.333	0.333	0.333	0.333	0.333	0.333	0.333	0.333	0.333	0.333	0.333	6.327	1.5921	5.0144	10	105	1.22788462437225	1	0
"106"	10	68	2	1	1.605	0	4	1	1	1.289	-0.3608	8.9724	1.9148	7.5018	-2.897	7.4686	7.2005	0.8302	0.8419	-0.2825	3.2957	-5.168	2.7021	6.9849	8.9507	-6.4235	-3.4139	-1.7154	-5.2569	1.4731	0.2915	0.2125	0.3441	0.4567	0.2231	0.2639	0.3625	0.3126	0.4548	0.2214	0.4099	0.2924	0.4486	0.3546	0.4263	0.2526	0.2938	0.4974	0.2046	6.3234	1.5286	2.8232	10	106	0.25386672395705	1	0
"107"	10	53	2	0	0	0	5	1	1	1.888	-3.0132	1.4772	9.2966	0.9221	4.8434	-5.302	1.9631	-5.9107	0.0515	-0.0493	2.1508	2.8383	-2.5527	8.0683	7.6293	-1.623	-7.6091	-6.7084	-4.0975	-1.9684	0.2933	0.4548	0.5274	0.2855	0.4795	0.239	0.2963	0.2354	0.3056	0.2433	0.4083	0.4623	0.2482	0.3818	0.2393	0.2019	0.2304	0.3863	0.4174	6.336	1.422	3.3217	10	107	0.635518067723309	1	0
"108"	10	69	2	2	3.21	0	11	1	1	3.523	-1.3912	0.7049	1.9376	6.1191	0.0202	-8.7639	-4.1771	10.7095	6.793	10.4565	-1.3362	4.5547	9.4745	6.6841	2.7265	2.2601	6.0857	0.9362	3.1669	7.2405	0.2616	0.3756	0.4799	0.3601	0.4824	0.2255	0.4928	0.2465	0.2161	0.2542	0.2067	0.3169	0.3755	0.5021	0.2359	0.4465	0.4014	0.2335	0.2047	6.3177	1.6116	5.1402	10	108	1.2593128993591	1	0
"109"	10	43	2	-4	-6.42	1	4	-1	1	1.006	-7.0183	-10.8993	-7.8988	-6.8398	4.7101	-14.9034	-5.2306	-7.5944	-7.1561	-15.3695	3.325	-7.5762	-2.5394	-6.8164	-3.9638	0.1931	-7.7631	-6.002	-10.5983	-9.1569	0.333	0.333	0.333	0.333	0.333	0.333	0.333	0.333	0.333	0.333	0.333	0.333	0.333	0.333	0.333	0.333	0.333	0.333	0.333	6.327	1.6125	2.6237	10	109	0.00598207167754747	0	1
"110"	10	66	2	-1	-1.605	0	5	1	0	1.461	-6.4587	5.2492	8.7524	7.0786	-0.185	0.1426	-7.4051	-2.5253	0.3444	-1.8718	-1.4082	3.6946	-7.2606	-4.7857	-9.7824	-6.8394	-3.655	-1.9728	-0.0454	-1.9679	0.428	0.3653	0.2003	0.3632	0.2521	0.2239	0.531	0.2323	0.3818	0.2393	0.4551	0.2285	0.4101	0.3764	0.209	0.3183	0.2425	0.5152	0.3619	6.3343	1.4331	2.8954	10	110	0.379121132768562	1	0
"111"	10	24	2	-1	-1.605	0	5	-1	1	1.554	-2.1767	-1.3734	-4.2109	-13.604	3.4489	-6.1233	-0.2304	-8.8409	0.1567	8.697	0.117	-5.7518	4.6641	-4.3595	-2.1906	-0.5474	-0.6228	4.4983	-1.9198	-3.6386	0.2461	0.2121	0.2814	0.4027	0.4828	0.2079	0.3098	0.4915	0.3878	0.2359	0.4012	0.3187	0.5151	0.3096	0.3803	0.2712	0.3043	0.3385	0.236	6.3329	1.6064	3.1713	10	111	0.440832251945456	0	1
"112"	10	5	2	1	1.605	1	17	1	1	5.399	2.0076	-2.9585	1.6424	-5.0107	4.1166	-0.2482	-3.5183	9.6443	4.8589	-3.5052	2.1602	2.7271	-3.8538	1.6196	13.4355	-6.1333	1.6462	6.0124	5.8027	2.2553	0.333	0.333	0.333	0.333	0.333	0.333	0.333	0.333	0.333	0.333	0.333	0.333	0.333	0.333	0.333	0.333	0.333	0.333	0.333	6.327	1.5759	6.9828	10	112	1.68621375123615	1	0
"113"	10	48	2	2	3.21	1	17	1	1	5.571	2.5644	-7.0919	4.1018	3.1434	5.8475	-5.175	8.763	2.3993	5.6099	1.9697	9.1133	-2.6771	10.5891	2.809	-4.517	0.9611	9.1431	9.2344	5.3215	1.7841	0.333	0.333	0.333	0.333	0.333	0.333	0.333	0.333	0.333	0.333	0.333	0.333	0.333	0.333	0.333	0.333	0.333	0.333	0.333	6.327	1.4926	7.0713	10	113	1.71757457103868	1	0
"114"	10	45	2	-1	-1.605	1	10	-1	1	3.14	1.0009	3.9382	-3.3927	-5.3955	-0.1885	4.4394	-4.5606	-12.2228	1.6792	7.3866	-0.9293	-5.7793	-7.0095	2.5271	-5.8876	-4.4552	1.606	-8.0351	0.4804	2.8807	0.333	0.333	0.333	0.333	0.333	0.333	0.333	0.333	0.333	0.333	0.333	0.333	0.333	0.333	0.333	0.333	0.333	0.333	0.333	6.327	1.4304	4.591	10	114	1.14422279992016	0	1
"115"	10	36	2	-4	-6.42	0	3	-1	1	0.958	-8.8898	-12.3672	-7.7136	-0.4648	-3.0352	-11.87	-2.1958	-1.7894	-7.2906	-2.3281	-6.6149	-13.0177	-6.5306	-4.5925	5.1102	-2.5574	-7.4744	-9.6899	-9.7369	-15.5736	0.3675	0.469	0.3009	0.3477	0.4551	0.3344	0.2805	0.2014	0.3228	0.2506	0.4248	0.2894	0.4123	0.2273	0.2582	0.2278	0.3058	0.4365	0.4066	6.3187	1.6248	2.5926	10	115	-0.0429075010112765	0	1
"116"	10	21	2	4	6.42	1	5	1	1	1.488	3.1525	-7.1455	10.666	7.5495	7.2267	5.2762	17.5387	4.0133	4.5873	11.885	6.7137	9.7734	3.405	6.7669	2.9815	12.0559	9.1706	2.1167	1.9827	6.8134	0.333	0.333	0.333	0.333	0.333	0.333	0.333	0.333	0.333	0.333	0.333	0.333	0.333	0.333	0.333	0.333	0.333	0.333	0.333	6.327	1.5192	3.0219	10	116	0.3974329364109	1	0
"117"	10	33	2	1	1.605	1	18	1	1	5.741	-1.4074	0.3868	-4.374	1.1182	5.4782	-2.6755	4.6778	-3.4949	9.1805	-3.6337	4.6237	-3.3537	6.0182	-7.0817	7.8663	1.5968	2.8763	6.9316	9.3147	-2.0554	0.333	0.333	0.333	0.333	0.333	0.333	0.333	0.333	0.333	0.333	0.333	0.333	0.333	0.333	0.333	0.333	0.333	0.333	0.333	6.327	1.6443	7.3918	10	117	1.7476334111855	1	0
"118"	10	22	2	-4	-6.42	0	4	-1	1	0.959	-3.806	-14.266	-4.3555	-15.6733	2.314	-2.763	-9.1992	-10.6543	-9.9977	-1.7849	-1.8222	-16.1295	-8.2638	-3.5254	-5.6117	-5.4623	-5.5568	-5.5803	-5.3052	0.9303	0.2705	0.3222	0.2822	0.4398	0.2447	0.5192	0.2558	0.3126	0.3929	0.4468	0.3284	0.3578	0.24	0.434	0.3091	0.2294	0.4267	0.2793	0.2437	6.3353	1.4334	2.4098	10	118	-0.0418642040986989	0	1
"119"	10	56	2	4	6.42	0	3	1	1	0.744	10.052	9.6809	8.1163	10.8488	6.6009	3.7273	0.6725	10.3632	-1.3991	17.6863	13.2068	1.004	7.3927	7.0708	6.7955	-3.3405	4.3301	5.0212	4.6208	7.1957	0.3407	0.2363	0.4347	0.3424	0.2296	0.465	0.226	0.433	0.2924	0.4357	0.492	0.3341	0.2232	0.4291	0.2026	0.3844	0.3124	0.225	0.2924	6.3313	1.6843	2.4447	10	119	-0.295714244149045	1	0
"120"	10	38	2	-1	-1.605	0	6	1	0	1.76	0.469	1.9652	-1.5747	0.4943	-4.5181	-2.7975	-0.5615	-1.6686	2.6432	4.8144	-5.421	-3.5604	2.0874	-6.0365	-13.1646	-5.3428	-5.8367	4.4687	-7.3219	7.7079	0.3138	0.2049	0.4397	0.3848	0.2049	0.3592	0.4646	0.2361	0.2809	0.399	0.2106	0.3286	0.5273	0.2296	0.5011	0.345	0.2666	0.3988	0.2244	6.3198	1.5649	3.3278	10	120	0.56531380905006	1	0
"121"	10	20	2	2	3.21	1	5	1	1	1.663	3.3352	0.7183	4.0911	7.5354	1.228	13.4187	1.6284	11.4543	-3.1548	4.0679	-6.0612	10.0599	-1.7527	1.5709	5.076	-2.4717	6.3659	0.1615	0.3402	5.1062	0.333	0.333	0.333	0.333	0.333	0.333	0.333	0.333	0.333	0.333	0.333	0.333	0.333	0.333	0.333	0.333	0.333	0.333	0.333	6.327	1.4791	3.1469	10	121	0.508623200210791	1	0
"122"	10	50	2	-4	-6.42	0	4	-1	1	0.897	-3.8497	-10.8527	-8.1024	-10.0835	-10.0886	-15.7904	-14.6135	-0.9273	-10.6064	-7.8076	-7.8513	-3.7189	-7.8926	-5.425	-2.8655	2.2485	-1.383	-4.6339	-4.4227	1.7414	0.3793	0.2138	0.2752	0.4115	0.2573	0.3207	0.4857	0.2608	0.4435	0.2143	0.2456	0.4825	0.2791	0.3308	0.4964	0.2703	0.2362	0.5084	0.2252	6.3367	1.5121	2.4143	10	122	-0.108699416923341	0	1
"123"	10	25	2	0	0	0	17	1	1	5.411	2.0102	3.4846	-8.9488	-2.4931	8.8554	1.6636	6.7846	0.4124	-4.3131	-1.8183	-8.0065	0.9224	-5.0837	3.1262	0.3773	8.2259	-0.6057	0.2897	-7.4386	1.187	0.4549	0.2656	0.4688	0.2372	0.3142	0.2283	0.3763	0.325	0.2751	0.3938	0.3024	0.3378	0.2172	0.3351	0.4831	0.2998	0.4478	0.2451	0.3282	6.3355	1.4513	6.8617	10	123	1.6884339186606	1	0
"124"	10	4	2	0	0	1	17	-1	1	5.611	-3.2757	-7.0108	4.6486	1.1458	-2.4462	-1.4023	5.1352	0.2119	0.6028	-0.1045	-1.9268	-6.2574	-7.4568	-5.6273	9.7774	-3.7018	1.375	6.8985	0.2428	7.3918	0.333	0.333	0.333	0.333	0.333	0.333	0.333	0.333	0.333	0.333	0.333	0.333	0.333	0.333	0.333	0.333	0.333	0.333	0.333	6.327	1.6701	7.2787	10	124	1.72472895676883	0	1
"125"	10	30	2	-2	-3.21	1	5	-1	1	1.425	-0.4199	-8.1212	-5.5725	-9.7054	-6.1994	-9.1518	-1.6833	-5.7906	-8.4869	-6.0711	1.6746	-0.3502	-7.473	1.2494	-4.3723	-5.3666	8.283	6.4067	-2.6503	-0.3868	0.333	0.333	0.333	0.333	0.333	0.333	0.333	0.333	0.333	0.333	0.333	0.333	0.333	0.333	0.333	0.333	0.333	0.333	0.333	6.327	1.5163	2.9418	10	125	0.354171813720614	0	1
"126"	10	52	2	-1	-1.605	0	20	-1	1	7.219	-1.5448	5.5745	2.7609	-3.3361	-6.079	1.5089	-4.9823	2.0771	-5.6254	1.495	-3.3737	-5.1082	1.8325	-6.6626	8.3903	-9.5558	3.0057	-7.6579	1.1593	-7.0431	0.3664	0.3133	0.4073	0.2301	0.2924	0.371	0.3358	0.219	0.4955	0.2516	0.4226	0.3845	0.202	0.3134	0.4694	0.3847	0.2099	0.2351	0.4294	6.3335	1.5533	8.786	10	126	1.97671643915702	0	1
"127"	10	12	2	1	1.605	0	8	1	1	2.406	0.5082	0.5391	3.3059	3.441	5.5122	-5.993	4.8724	7.6175	4.6493	-6.294	9.8394	-0.9008	0.9899	4.5904	0.1604	5.87	1.3982	5.2682	-9.0626	-4.374	0.2352	0.4233	0.2866	0.3335	0.3587	0.4884	0.2056	0.4142	0.272	0.3457	0.2478	0.409	0.312	0.2293	0.2021	0.2396	0.5183	0.355	0.4581	6.3345	1.5214	3.9404	10	127	0.877965617552487	1	0
"128"	10	11	2	0	0	0	17	1	1	5.374	0.3355	1.8869	-4.8554	-0.6826	-3.718	0.3061	7.0519	-5.688	-4.741	-3.4903	-5.083	-4.2131	7.6251	0.4355	12.8044	2.6062	5.2953	-2.8346	-4.4279	0.1645	0.3431	0.266	0.5194	0.3262	0.4414	0.3315	0.2275	0.3146	0.2671	0.36	0.2744	0.2322	0.4626	0.3141	0.2642	0.3796	0.5237	0.2714	0.2088	6.3277	1.5887	6.9749	10	128	1.6815725101933	1	0
"129"	10	6	2	2	3.21	1	11	1	1	3.601	4.2797	1.7718	-0.2075	7.8102	1.8465	2.5445	-11.3329	7.3359	10.1419	7.4796	0.2774	4.3481	-3.0603	8.9132	3.8023	6.5167	-0.8576	-0.6195	7.877	3.5742	0.333	0.333	0.333	0.333	0.333	0.333	0.333	0.333	0.333	0.333	0.333	0.333	0.333	0.333	0.333	0.333	0.333	0.333	0.333	6.327	1.6537	5.2679	10	129	1.28121158466674	1	0
"130"	10	58	2	-2	-3.21	1	12	-1	1	3.69	-7.3517	-6.5378	-2.677	-6.4024	0.371	-1.0715	1.501	0.1283	-4.8266	-4.0822	-6.644	-9.1989	-6.7555	4.5194	-0.3566	-4.2365	-5.5539	-6.0505	10.9583	-9.2989	0.333	0.333	0.333	0.333	0.333	0.333	0.333	0.333	0.333	0.333	0.333	0.333	0.333	0.333	0.333	0.333	0.333	0.333	0.333	6.327	1.5239	5.2239	10	130	1.30562645805244	0	1
"131"	10	61	2	1	1.605	1	7	1	1	2.046	0.8473	3.2889	2.6796	2.4491	5.1679	0.8321	-0.0236	0.9997	4.5588	-3.8943	0.89	11.8715	-2.5596	1.6973	13.1065	-2.9296	-1.1085	4.0657	-10.1581	-0.3118	0.333	0.333	0.333	0.333	0.333	0.333	0.333	0.333	0.333	0.333	0.333	0.333	0.333	0.333	0.333	0.333	0.333	0.333	0.333	6.327	1.7101	3.7635	10	131	0.715886667529435	1	0
"132"	10	10	2	-1	-1.605	0	10	1	0	2.882	-2.5177	6.4471	2.2525	-1.5003	-2.6525	-0.2215	-8.2786	4.5981	-1.9233	3.4336	0.9409	-3.6476	2.1152	-2.0534	-2.2176	-2.6042	-4.7455	-17.638	-1.4196	-0.5252	0.2085	0.3552	0.4294	0.2109	0.242	0.4051	0.2955	0.3429	0.2671	0.4351	0.3118	0.2301	0.3545	0.3166	0.4508	0.4157	0.2079	0.3485	0.5026	6.3304	1.4786	4.3661	10	132	1.05848449757733	1	0
"133"	10	62	2	2	3.21	1	5	1	1	1.662	-1.7744	3.797	6.7421	7.2181	1.1019	-3.1467	3.5672	7.7739	4.0569	9.9131	-3.918	5.1077	6.8343	9.8871	-8.0487	-2.037	3.9876	0.7773	3.366	9.7446	0.333	0.333	0.333	0.333	0.333	0.333	0.333	0.333	0.333	0.333	0.333	0.333	0.333	0.333	0.333	0.333	0.333	0.333	0.333	6.327	1.4065	3.0788	10	133	0.508021696433256	1	0
"134"	10	64	2	-4	-6.42	0	3	-1	1	0.901	-10.0575	-6.6651	9.4152	-7.8976	-14.3883	-5.0562	-1.5634	-3.4012	-8.4779	-6.7819	-3.3309	-2.5499	-7.9115	-10.0318	-3.4688	-12.575	-6.0787	-8.8138	-5.1511	-11.8119	0.4562	0.2326	0.3607	0.3064	0.343	0.3	0.2743	0.3875	0.2019	0.4118	0.3814	0.4977	0.2171	0.4015	0.2882	0.2084	0.2529	0.5111	0.3004	6.3332	1.6574	2.5683	10	134	-0.104250021373799	0	1
"135"	10	17	2	-1	-1.605	1	4	-1	1	1.175	-3.3358	-6.4717	-1.9034	3.0769	3.298	-0.8132	1.0162	-3.3357	8.05	-0.6272	3.8293	-4.0103	7.2329	-3.838	-6.7966	-8.3643	-8.934	-5.1938	-6.0458	0.2493	0.333	0.333	0.333	0.333	0.333	0.333	0.333	0.333	0.333	0.333	0.333	0.333	0.333	0.333	0.333	0.333	0.333	0.333	0.333	6.327	1.4351	2.6094	10	135	0.161268147596122	0	1
"136"	10	13	2	2	3.21	0	9	1	1	2.538	5.1282	-2.2495	-1.9826	2.959	2.8558	7.5188	7.0812	3.6273	8.8745	0.582	2.6633	-6.3761	13.0281	8.2367	5.4578	7.3014	1.0478	-3.6441	6.1854	-4.4169	0.3216	0.4559	0.4126	0.2114	0.2479	0.2021	0.351	0.2459	0.3911	0.5228	0.4115	0.2037	0.4447	0.2589	0.3694	0.2861	0.3769	0.2606	0.3592	6.3334	1.7114	4.2721	10	136	0.931376369292196	1	0
"137"	10	57	2	-4	-6.42	1	4	-1	1	1.093	-7.4744	-10.2582	-8.0875	-11.0463	-1.4021	-4.8599	-5.0331	-4.3714	-9.0443	-1.3724	1.9095	-3.8578	-16.9102	-10.9836	-4.0504	-6.5028	-12.927	-12.4389	-3.7505	2.3061	0.333	0.333	0.333	0.333	0.333	0.333	0.333	0.333	0.333	0.333	0.333	0.333	0.333	0.333	0.333	0.333	0.333	0.333	0.333	6.327	1.6538	2.7605	10	137	0.0889262091944015	0	1
"138"	10	27	2	2	3.21	0	7	1	1	2.209	-1.6768	5.5136	10.2528	-0.7116	-1.3662	8.331	6.9498	6.0833	8.6611	-5.5579	2.1433	3.2994	8.6157	3.1674	9.8382	0.6698	4.7924	4.3139	-4.3558	-4.3439	0.269	0.4634	0.3048	0.3478	0.3189	0.4617	0.2811	0.4587	0.2267	0.2818	0.2486	0.4233	0.2833	0.3968	0.3048	0.2711	0.3418	0.2356	0.3997	6.3187	1.7116	3.9264	10	138	0.79253992443798	1	0
"139"	10	63	2	4	6.42	1	5	1	1	1.641	6.5303	-2.3842	2.4085	6.8096	8.7596	14.8178	2.4636	7.5843	17.3136	4.8114	-1.5271	5.6658	2.3383	7.3174	11.5641	2.0431	5.2032	12.1116	8.4211	4.8134	0.333	0.333	0.333	0.333	0.333	0.333	0.333	0.333	0.333	0.333	0.333	0.333	0.333	0.333	0.333	0.333	0.333	0.333	0.333	6.327	1.5091	3.1584	10	139	0.495305812107954	1	0
"140"	10	14	2	4	6.42	0	5	1	1	1.231	9.7665	6.6095	7.1387	9.8149	7.4826	3.2087	4.5793	5.3893	4.2442	1.9179	-2.7426	7.3966	9.3522	17.8119	11.4821	13.3785	-1.4735	8.9147	5.6979	-0.3862	0.272	0.2326	0.2013	0.4763	0.3852	0.4249	0.274	0.3353	0.4388	0.3369	0.2012	0.4501	0.3719	0.2702	0.3177	0.4567	0.2097	0.3905	0.2876	6.3332	1.4552	2.698	10	140	0.207826847202317	1	0
"141"	10	42	3	4	6.42	0	3	1	1	0.888	2.5172	6.1103	-4.8928	5.6442	17.924	8.9541	17.1439	5.9813	3.9599	6.9203	8.3493	2.2381	9.4543	3.9198	4.595	2.648	5.4473	7.3606	4.5503	8.7217	0.2424	0.3057	0.4924	0.3075	0.3507	0.2812	0.4987	0.2881	0.3634	0.2021	0.2874	0.3678	0.3219	0.401	0.2631	0.4253	0.3173	0.3472	0.2673	6.3304	1.6976	2.5891	10	141	-0.118783535989967	1	0
"142"	10	34	3	2	3.21	1	5	1	1	1.448	4.3451	0.2712	-4.9271	6.4689	2.1024	-2.7543	0.7449	0.6436	4.5427	5.3585	3.2568	7.1061	-6.2575	-0.6978	8.1473	14.1656	1.8437	1.442	9.3638	8.5507	0.333	0.333	0.333	0.333	0.333	0.333	0.333	0.333	0.333	0.333	0.333	0.333	0.333	0.333	0.333	0.333	0.333	0.333	0.333	6.327	1.7329	3.1992	10	142	0.370183293963525	1	0
"143"	10	25	3	0	0	0	12	1	0	3.784	3.7227	-2.8673	-3.2213	-6.4396	0.5134	-2.2109	8.7476	-2.0677	-5.3232	-2.6664	7.8552	-3.6301	2.3054	0.3159	10.2267	0.7992	-7.3236	-0.5136	4.6461	-3.4143	0.2967	0.2037	0.3167	0.413	0.449	0.2139	0.3954	0.3156	0.459	0.2338	0.4783	0.5066	0.3741	0.2554	0.3194	0.218	0.2617	0.3255	0.2999	6.3358	1.6242	5.4184	10	143	1.33078165118963	1	0
"144"	10	43	3	-4	-6.42	1	4	-1	1	1.106	-6.2445	-9.3751	-2.9272	-6.2891	-13.3864	-9.7648	-19.1985	-7.1196	-10.8489	-9.2733	2.235	-1.6336	-2.2273	-6.547	-1.8308	-5.4589	-3.7338	0.4993	-4.9956	-11.3269	0.333	0.333	0.333	0.333	0.333	0.333	0.333	0.333	0.333	0.333	0.333	0.333	0.333	0.333	0.333	0.333	0.333	0.333	0.333	6.327	1.5886	2.7066	10	144	0.100749903100143	0	1
"145"	10	9	3	-2	-3.21	0	3	-1	1	0.784	-7.5191	-10.2802	-3.0768	-7.0526	-0.1213	-1.0538	-6.2089	-7.2358	-3.1385	-8.6981	-2.5678	-5.0581	9.7444	-7.443	-4.2551	-7.114	3.1093	-0.3413	1.5659	4.0496	0.2569	0.3222	0.2703	0.3989	0.2565	0.3078	0.3647	0.4148	0.3546	0.3822	0.3156	0.3749	0.2107	0.4835	0.2392	0.2743	0.316	0.5164	0.2744	6.3339	1.6273	2.4179	10	145	-0.243346258631729	0	1
"146"	10	1	3	-4	-6.42	1	4	-1	1	1.014	-8.3756	4	-5.4196	-3.6413	-3.418	-11.1226	-6.5772	-12.2208	-12.9753	-8.5659	-1.6371	-6.2623	1.4739	-12.7211	-10.5913	-2.9955	-10.8212	-2.3733	-11.4324	-2.3786	0.333	0.333	0.333	0.333	0.333	0.333	0.333	0.333	0.333	0.333	0.333	0.333	0.333	0.333	0.333	0.333	0.333	0.333	0.333	6.327	1.5619	2.5811	10	146	0.0139029051689914	0	1
"147"	10	46	3	0	0	1	8	1	1	2.536	2.0319	-1.0966	-3.0347	-8.8694	-5.6598	4.1589	10.7367	4.67	-1.9183	6.2126	-4.081	1.2122	-5.0814	3.7511	-1.8226	-1.5555	-5.0013	1.0597	7.1376	-3.6795	0.333	0.333	0.333	0.333	0.333	0.333	0.333	0.333	0.333	0.333	0.333	0.333	0.333	0.333	0.333	0.333	0.333	0.333	0.333	6.327	1.6696	4.2197	10	147	0.930588036574979	1	0
"148"	10	41	3	2	3.21	0	3	1	1	0.765	3.2456	8.9892	-0.1089	-1.6398	2.1634	2.7617	3.2293	-4.586	0.1721	7.6576	4.8924	15.8254	4.8227	1.2309	3.8026	4.8634	1.7861	10.7552	-3.1884	-4.1349	0.2004	0.3964	0.2429	0.3555	0.4001	0.2202	0.5026	0.3228	0.4211	0.2114	0.4005	0.2943	0.2679	0.3821	0.292	0.2251	0.3212	0.3724	0.508	6.3368	1.6948	2.4662	10	148	-0.267879445155601	1	0
"149"	10	57	3	-4	-6.42	1	3	-1	1	0.88	-5.7451	-7.207	-7.6511	-5.1233	-0.6278	-3.5683	-0.3516	-10.1961	-12.0661	3.3758	-6.1384	-12.1082	-11.8631	-4.0774	-14.0066	1.9076	-8.7232	-8.7206	-12.8651	-3.4543	0.333	0.333	0.333	0.333	0.333	0.333	0.333	0.333	0.333	0.333	0.333	0.333	0.333	0.333	0.333	0.333	0.333	0.333	0.333	6.327	1.7324	2.6144	10	149	-0.127833371509885	0	1
"150"	10	12	3	1	1.605	0	10	1	1	2.91	1.5028	-8.7513	-2.728	1.6574	1.8058	4.3398	3.3996	11.794	-1.6369	-2.2442	4.9457	3.6636	-1.0496	-2.8834	4.513	5.4336	1.9817	-5.8103	3.7261	10.2346	0.2766	0.2175	0.4857	0.3797	0.2264	0.4721	0.2454	0.3582	0.23	0.3094	0.418	0.259	0.2181	0.3037	0.2229	0.4865	0.4433	0.3267	0.4546	6.3338	1.6923	4.6113	10	150	1.0681530811834	1	0
"151"	10	27	3	2	3.21	0	10	1	1	3.136	-0.4584	1.0758	1.6927	-2.2289	6.322	-3.294	-2.6361	1.4512	1.3927	14.5168	0.5341	8.5441	8.4305	10.9023	2.0447	3.0286	-3.2184	4.5085	7.0368	5.9548	0.3649	0.219	0.4872	0.2489	0.3461	0.2264	0.2633	0.3479	0.2381	0.4176	0.281	0.2529	0.4261	0.3145	0.3717	0.3986	0.3573	0.4608	0.309	6.3313	1.4447	4.5863	10	151	1.14294810248816	1	0
"152"	10	67	3	0	0	0	17	1	1	5.515	-2.6905	0.0603	6.8373	0.7433	1.4417	-6.894	7.2795	1.1315	6.7352	-10.4466	-1.8655	-2.4541	-2.0825	-0.3533	6.3774	5.3105	-0.0099	2.4785	-8.7647	-1.9012	0.5012	0.3163	0.2539	0.3806	0.211	0.3462	0.2134	0.3334	0.2823	0.4376	0.353	0.3977	0.3271	0.2408	0.2066	0.3352	0.4959	0.3101	0.3846	6.3269	1.5832	7.0991	10	152	1.70747165270547	1	0
"153"	10	13	3	2	3.21	0	6	1	1	1.612	3.9904	0.4793	5.1338	10.3464	7.8914	-0.8724	-1.1771	-1.9807	-2.9762	3.8255	10.2121	-7.1285	5.3772	7.6575	2.9098	3.3865	-3.7109	8.881	6.3275	4.532	0.2053	0.237	0.4479	0.2795	0.3764	0.2383	0.3588	0.2078	0.4789	0.3007	0.4763	0.4372	0.3731	0.2062	0.4596	0.3635	0.2432	0.3971	0.2317	6.3184	1.7207	3.3296	10	153	0.477475644084437	1	0
"154"	10	44	3	-2	-3.21	1	5	-1	1	1.364	0.4369	-12.1168	1.2293	-5.548	-0.4278	-1.2798	-6.1136	-7.3645	-4.9032	1.559	7.1248	-6.0539	4.1034	-6.1455	1.6446	-4.5763	-3.4359	-12.0595	-3.1092	-5.21	0.333	0.333	0.333	0.333	0.333	0.333	0.333	0.333	0.333	0.333	0.333	0.333	0.333	0.333	0.333	0.333	0.333	0.333	0.333	6.327	1.5827	2.9648	10	154	0.31042155942127	0	1
"155"	10	22	3	-4	-6.42	0	5	-1	1	1.761	-4.9645	3.2723	-8.0699	-10.6719	-10.1152	-7.8867	2.2444	-13.0293	-8.4797	1.4184	-4.1685	-8.2493	-11.2607	-4.14	-9.7265	-6.9578	-2.4544	-14.8123	-8.1621	-3.7486	0.3102	0.4241	0.487	0.3876	0.2985	0.4723	0.29	0.3194	0.2461	0.3624	0.2048	0.2363	0.4309	0.2232	0.3949	0.2696	0.2099	0.2861	0.4687	6.3221	1.6745	3.4448	10	155	0.565881829514069	0	1
"156"	10	4	3	0	0	1	6	1	1	1.686	4.0118	-2.5233	0.7683	6.2506	1.6451	-3.5122	-0.9768	-3.8072	4.9625	-2.2847	0.8537	2.2599	1.7795	-12.5407	-1.8608	0.8353	0.5617	10.8248	-1.213	-7.6802	0.333	0.333	0.333	0.333	0.333	0.333	0.333	0.333	0.333	0.333	0.333	0.333	0.333	0.333	0.333	0.333	0.333	0.333	0.333	6.327	1.4149	3.12	10	156	0.522358859579664	1	0
"157"	10	32	3	0	0	1	15	-1	1	4.664	-4.5012	5.9342	3.6461	-3.8091	-6.0644	-3.4265	-3.5483	0.8452	-0.1323	2.2398	1.3123	-3.0482	-5.1579	-0.9878	-0.1637	0.1454	9.8607	11.8877	1.36	-5.6522	0.333	0.333	0.333	0.333	0.333	0.333	0.333	0.333	0.333	0.333	0.333	0.333	0.333	0.333	0.333	0.333	0.333	0.333	0.333	6.327	1.7169	6.3985	10	157	1.53987344904819	0	1
"158"	10	11	3	0	0	0	4	1	0	0.833	3.3201	-0.1545	-6.7816	1.0692	-0.3159	4.9883	2.8153	-4.8861	5.6515	-4.5391	-5.6624	3.3369	11.5546	2.5169	-6.1006	-2.0965	7.4101	-4.2488	-2.5859	-4.262	0.2549	0.2265	0.2693	0.4732	0.3707	0.4029	0.2578	0.4326	0.2532	0.4502	0.2003	0.2771	0.4105	0.2117	0.463	0.2087	0.3571	0.4287	0.379	6.3273	1.4253	2.2666	10	158	-0.182721636815294	1	0
"159"	10	38	3	-1	-1.605	0	9	-1	1	2.804	-3.5461	-0.6825	4.8629	-6.4034	6.06	1.8275	-8.6908	-4.0128	-3.6479	-4.0558	3.9003	-3.9119	-0.6795	2.7836	4.1013	-6.6676	-3.4313	5.6221	-5.1136	-9.939	0.2336	0.4876	0.2445	0.5044	0.2036	0.3098	0.4247	0.2309	0.3309	0.2906	0.2435	0.5078	0.2761	0.4095	0.359	0.2572	0.3095	0.2323	0.4788	6.3343	1.5714	4.3879	10	159	1.03104696917234	0	1
"160"	10	7	3	4	6.42	1	3	1	1	0.704	11.123	6.1287	5.6758	4.6321	10.0849	4.9747	9.5987	5.7663	-1.1691	0.5688	6.6372	-3.1104	19.3556	3.2945	5.9038	3.666	12.6659	10.4833	7.0456	3.5492	0.333	0.333	0.333	0.333	0.333	0.333	0.333	0.333	0.333	0.333	0.333	0.333	0.333	0.333	0.333	0.333	0.333	0.333	0.333	6.327	1.7148	2.4214	10	160	-0.350976922824095	1	0
"161"	10	19	3	1	1.605	1	5	1	1	1.339	-2.2226	-2.5039	8.5508	1.6366	-5.0682	-3.7848	9.179	3.2222	-0.8396	12.3711	-1.3423	-1.5914	4.6058	-2.9299	5.2573	0.9258	0.2961	5.7315	6.0282	-3.7036	0.333	0.333	0.333	0.333	0.333	0.333	0.333	0.333	0.333	0.333	0.333	0.333	0.333	0.333	0.333	0.333	0.333	0.333	0.333	6.327	1.5947	2.9402	10	161	0.291923066709035	1	0
"162"	10	8	3	-4	-6.42	0	3	-1	1	0.699	-7.4494	-3.052	-4.1243	-5.4228	-14.6842	2.1899	-14.7417	-13.0851	-6.614	-10.8654	2.3415	-6.5245	-11.3103	-4.6235	-4.9854	-7.2841	0.2626	-7.3216	-8.681	-0.6729	0.4101	0.2653	0.207	0.2877	0.2617	0.3482	0.208	0.4951	0.219	0.4829	0.523	0.3241	0.2074	0.3725	0.4034	0.2818	0.3984	0.3358	0.2925	6.324	1.634	2.3328	10	162	-0.358104536748327	0	1
"163"	10	2	3	-2	-3.21	1	4	-1	1	1.188	-0.9456	-4.711	-9.5325	-10.9852	-7.549	4.3213	-0.8873	0.2938	-5.3263	-13.2114	-4.0005	-7.0253	2.5399	-9.0642	-0.5765	-0.6538	1.3343	4.4858	-1.0148	-2.9074	0.333	0.333	0.333	0.333	0.333	0.333	0.333	0.333	0.333	0.333	0.333	0.333	0.333	0.333	0.333	0.333	0.333	0.333	0.333	6.327	1.7031	2.8886	10	163	0.172271220940453	0	1
"164"	10	62	3	2	3.21	1	5	1	1	1.413	0.6786	-2.2454	7.1854	4.6976	-0.4154	10.301	-2.2348	-2.3448	3.3687	0.8681	13.3198	6.5057	-0.6146	6.711	10.1722	-3.3626	-1.6077	8.3588	1.9597	2.2618	0.333	0.333	0.333	0.333	0.333	0.333	0.333	0.333	0.333	0.333	0.333	0.333	0.333	0.333	0.333	0.333	0.333	0.333	0.333	6.327	1.5095	2.93	10	164	0.34571510370239	1	0
"165"	10	58	3	-2	-3.21	1	3	-1	1	0.992	0.4185	-9.0364	-1.1199	-0.1554	-9.6441	0.8761	-2.0067	-1.5672	3.1079	3.608	-2.1419	-3.5413	-10.4439	3.4057	-7.5322	-1.7594	-4.2528	-1.3547	-5.9604	-15.1678	0.333	0.333	0.333	0.333	0.333	0.333	0.333	0.333	0.333	0.333	0.333	0.333	0.333	0.333	0.333	0.333	0.333	0.333	0.333	6.327	1.4021	2.3925	10	165	-0.00803217169726427	0	1
"166"	10	51	3	-2	-3.21	0	4	-1	1	1.291	-5.0666	-5.7488	-9.5942	-6.7763	-0.5724	-5.2353	-5.1977	-9.696	1.843	6.7722	-8.1455	0.5325	-5.0372	1.2878	2.7083	-1.8031	0.1273	-7.0978	-10.9001	4.5147	0.3447	0.3978	0.4523	0.2344	0.4409	0.3425	0.2879	0.2414	0.3553	0.426	0.3406	0.2623	0.2104	0.3617	0.2231	0.2781	0.3068	0.3699	0.4472	6.3233	1.6273	2.9249	10	166	0.255417111864505	0	1
"167"	10	66	3	-1	-1.605	0	3	1	0	0.621	2.6988	-0.2566	-4.3138	-6.5562	-3.2442	-8.7634	-11.1337	6.5903	4.486	0.8711	1.9058	-1.0816	5.1495	-3.0123	-6.1887	-9.0069	-0.9554	1.5512	-0.0169	1.036	0.3451	0.2176	0.252	0.2836	0.3537	0.3093	0.51	0.2557	0.3009	0.3983	0.2196	0.3412	0.3951	0.4483	0.3962	0.2038	0.4581	0.2133	0.4211	6.3229	1.5931	2.2215	10	167	-0.476424197048658	1	0
"168"	10	31	3	-1	-1.605	1	14	-1	1	4.47	1.6006	5.1781	-1.8801	-1.372	-7.1811	-1.4537	1.808	-3.753	-10.0447	-0.3316	4.2215	-3.907	-6.1378	6.6641	-1.5095	-7.7988	6.9512	1.1728	-4.6177	-8.3634	0.333	0.333	0.333	0.333	0.333	0.333	0.333	0.333	0.333	0.333	0.333	0.333	0.333	0.333	0.333	0.333	0.333	0.333	0.333	6.327	1.6149	6.0869	10	168	1.49738840862548	0	1
"169"	10	50	3	-4	-6.42	0	3	-1	1	0.74	-10.4279	-16.3758	-1.7899	-11.2876	0.2081	-8.7079	2.3337	-6.3256	-5.6644	-4.1938	-11.527	-11.6435	-3.6738	1.1916	-5.5933	-1.9225	-3.2304	-9.4722	-9.1376	-9.6997	0.2026	0.3606	0.2531	0.2791	0.3911	0.2584	0.3471	0.455	0.4912	0.3643	0.2477	0.2969	0.4737	0.2051	0.3412	0.2138	0.4579	0.2267	0.4563	6.3219	1.5503	2.3071	10	169	-0.301105092783922	0	1
"170"	10	68	3	1	1.605	0	4	1	1	1.349	2.0305	5.2739	6.8859	13.3531	-2.3875	8.4331	0.5897	3.767	-5.1821	5.0072	4.9205	1.1436	-2.5213	-2.8364	-4.8339	-6.4841	0.9071	1.7566	0.5207	3.3338	0.2693	0.4644	0.2064	0.5326	0.35	0.2744	0.2376	0.2781	0.2529	0.4196	0.4771	0.2163	0.2633	0.4993	0.2555	0.3562	0.4284	0.2904	0.2638	6.3357	1.5505	2.9168	10	170	0.299363577225619	1	0
"171"	10	17	3	-1	-1.605	1	20	1	0	7.149	-5.7284	4.7165	8.9486	2.0014	-2.9953	1.7042	-1.5534	-3.7419	-7.4933	-3.6315	2.0391	-7.5838	-3.8733	3.769	-10.4591	-7.2587	0.2524	3.5915	-3.5808	-0.7934	0.333	0.333	0.333	0.333	0.333	0.333	0.333	0.333	0.333	0.333	0.333	0.333	0.333	0.333	0.333	0.333	0.333	0.333	0.333	6.327	1.7048	8.8667	10	171	1.96697248678471	1	0
"172"	10	52	3	-1	-1.605	0	7	1	0	2.563	3.1846	1.3971	1.2438	-0.9157	1.5759	4.2615	-9.1178	-3.2145	8.0551	-2.6493	-2.2188	-12.7408	-3.9435	-3.8372	-8.7464	-3.9017	1.4858	-5.4105	4.0076	-0.6833	0.2869	0.5155	0.2952	0.3466	0.2226	0.3711	0.532	0.2064	0.2801	0.2505	0.3569	0.4474	0.2419	0.4204	0.4937	0.2474	0.2109	0.263	0.3406	6.3291	1.5111	4.0808	10	172	0.941178447381934	1	0
"173"	10	53	3	0	0	0	20	-1	0	6.398	0.672	-7.3201	1.7122	8.4079	-1.3817	-3.9415	3.15	1.9398	2.6341	-1.1423	5.3187	3.7148	-1.429	-0.1579	3.8656	-5.5007	7.4031	-9.1523	-8.298	-0.382	0.3347	0.3928	0.3371	0.3876	0.2684	0.4566	0.3664	0.4278	0.2332	0.3341	0.2026	0.3866	0.344	0.2514	0.299	0.235	0.3224	0.4519	0.2969	6.3284	1.6362	8.0483	10	173	1.85598544152733	0	1
"174"	10	36	3	-4	-6.42	0	4	-1	1	1.109	-6.1274	-9.1842	-3.5708	-3.7466	-8.9798	-7.6711	-7.9478	-7.927	-7.579	2.3545	5.5585	-2.4861	-14.1214	-13.5025	-6.9301	-2.7801	-4.88	-5.8882	-8.1103	-14.6413	0.2912	0.3261	0.2807	0.4726	0.275	0.3499	0.295	0.2663	0.4219	0.5294	0.2434	0.5023	0.2154	0.327	0.2343	0.4129	0.2066	0.451	0.2205	6.3215	1.5076	2.6259	10	174	0.10345870836823	0	1
"175"	10	5	3	1	1.605	1	3	1	1	0.828	4.6717	2.8102	-6.6569	-7.2903	0.6869	1.6867	4.688	-0.18	2.4779	4.1216	9.5543	1.1652	4.3248	7.2777	-10.4203	0.6298	6.8692	0.0497	0.0272	4.2794	0.333	0.333	0.333	0.333	0.333	0.333	0.333	0.333	0.333	0.333	0.333	0.333	0.333	0.333	0.333	0.333	0.333	0.333	0.333	6.327	1.4025	2.2291	10	175	-0.188742124596877	1	0
"176"	10	49	3	4	6.42	1	3	1	1	0.886	4.1081	11.1093	4.4615	-0.8758	7.7635	1.6203	14.5646	9.2894	13.5676	3.2508	12.3421	7.6624	2.5316	14.7862	7.4279	8.2482	-2.285	1.0362	4.9281	4.2301	0.333	0.333	0.333	0.333	0.333	0.333	0.333	0.333	0.333	0.333	0.333	0.333	0.333	0.333	0.333	0.333	0.333	0.333	0.333	6.327	1.5633	2.4536	10	176	-0.121038328377056	1	0
"177"	10	33	3	1	1.605	1	11	1	1	3.62	1.5447	-0.8628	0.6087	2.4798	5.412	-7.6498	10.8595	-4.308	-1.2188	7.2997	8.8923	-6.4982	6.3549	5.4311	5.6531	-1.1345	0.6644	-2.3932	-2.1127	4.594	0.333	0.333	0.333	0.333	0.333	0.333	0.333	0.333	0.333	0.333	0.333	0.333	0.333	0.333	0.333	0.333	0.333	0.333	0.333	6.327	1.4794	5.104	10	177	1.28647402583768	1	0
"178"	10	10	3	-1	-1.605	0	19	-1	1	6.23	-5.7078	1.266	-2.116	-0.5202	5.9795	-4.0919	-3.0591	-4.5189	-9.5242	1.6446	8.4485	2.1937	-3.0657	-5.2627	-4.3824	-7.4708	5.0508	-7.6774	-5.6117	4.5192	0.3073	0.4052	0.3388	0.407	0.3355	0.51	0.359	0.3898	0.2307	0.2713	0.3137	0.2052	0.3456	0.2677	0.2084	0.3052	0.5099	0.2004	0.4203	6.3309	1.5865	7.8146	10	178	1.82937633279936	0	1
"179"	10	39	3	0	0	0	4	1	1	1.239	-0.2203	7.1413	4.9431	-0.2045	-0.4156	-8.0736	1.8506	-2.3034	-1.7582	-0.3089	-7.6059	4.7187	2.4846	2.8664	-4.5384	0.5797	8.5499	-11.5423	-0.0515	4.094	0.265	0.4316	0.2244	0.3645	0.2336	0.4481	0.2198	0.3023	0.5135	0.2308	0.4955	0.3427	0.2039	0.3127	0.4206	0.2777	0.3578	0.4295	0.247	6.3209	1.5813	2.8402	10	179	0.214304602647005	1	0
"180"	10	63	3	4	6.42	1	6	1	1	1.679	4.1156	-0.106	-0.6448	11.212	9.4324	14.466	7.1813	5.0217	6.6196	7.9874	1.7232	3.1518	3.2101	7.8894	14.6564	11.9522	6.5141	-2.4434	4.2428	13.8063	0.333	0.333	0.333	0.333	0.333	0.333	0.333	0.333	0.333	0.333	0.333	0.333	0.333	0.333	0.333	0.333	0.333	0.333	0.333	6.327	1.5932	3.2802	10	180	0.518198378095404	1	0
"181"	10	16	3	-2	-3.21	1	8	-1	1	2.396	-6.5961	4.8902	-0.7231	-4.0584	-2.1001	-9.542	-8.9105	3.286	4.8869	0.9634	1.0543	-5.08	-2.3007	-11.9884	-6.9284	-5.0141	-4.9262	-2.6507	0.2038	-10.464	0.333	0.333	0.333	0.333	0.333	0.333	0.333	0.333	0.333	0.333	0.333	0.333	0.333	0.333	0.333	0.333	0.333	0.333	0.333	6.327	1.6336	4.0466	10	181	0.873800680253203	0	1
"182"	10	60	3	0	0	1	9	-1	1	2.941	-3.0133	1.0705	-9.9166	8.4153	0.9277	0.3928	2.0658	-7.1174	0.1481	-0.8051	9.3337	0.2578	0.2738	0.8877	-5.1675	-4.2826	-4.6124	5.1436	6.2646	0.412	0.333	0.333	0.333	0.333	0.333	0.333	0.333	0.333	0.333	0.333	0.333	0.333	0.333	0.333	0.333	0.333	0.333	0.333	0.333	6.327	1.6175	4.5755	10	182	1.07874965957186	0	1
"183"	10	35	3	4	6.42	1	8	1	1	2.4	6.259	-0.748	1.953	1.5979	1.3491	8.8579	10.3104	8.6307	5.8835	13.4993	15.8916	13.1193	6.6794	6.7945	6.957	0.8546	9.4465	-3.0207	7.4053	5.4367	0.333	0.333	0.333	0.333	0.333	0.333	0.333	0.333	0.333	0.333	0.333	0.333	0.333	0.333	0.333	0.333	0.333	0.333	0.333	6.327	1.4058	3.8177	10	183	0.8754687373539	1	0
"184"	10	30	3	-2	-3.21	1	3	-1	1	0.825	-3.8758	-11.8079	-6.0532	-4.6695	-13.2793	-9.4348	-4.2633	6.3468	3.4989	-2.1881	-3.199	-1.9519	0.9806	-5.2729	-2.7889	-7.04	-3.7898	-0.4216	2.2888	2.5247	0.333	0.333	0.333	0.333	0.333	0.333	0.333	0.333	0.333	0.333	0.333	0.333	0.333	0.333	0.333	0.333	0.333	0.333	0.333	6.327	1.5669	2.4088	10	184	-0.192371892647456	0	1
"185"	10	45	3	-1	-1.605	1	16	1	0	5.293	-4.7577	-1.3287	-8.4248	-5.002	1.5642	-9.6949	-2.6534	1.0006	4.4314	2.686	-0.5631	-2.2098	-4.5105	3.2685	5.6378	-0.955	-4.0187	7.9883	-7.7074	-7.0233	0.333	0.333	0.333	0.333	0.333	0.333	0.333	0.333	0.333	0.333	0.333	0.333	0.333	0.333	0.333	0.333	0.333	0.333	0.333	6.327	1.4041	6.7103	10	185	1.66638519287585	1	0
"186"	10	26	3	1	1.605	0	7	1	1	2.343	-1.5366	4.3374	-2.1089	-2.1878	8.4992	0.1653	-4.5978	-1.1791	7.6207	-4.3679	8.3541	-1.2113	-2.5081	15.284	3.3832	0.0065	1.9495	0.6807	4.3245	-1.2321	0.4343	0.2427	0.5121	0.3805	0.2325	0.3522	0.3213	0.2648	0.5229	0.2714	0.2098	0.4021	0.2459	0.3402	0.2182	0.2799	0.4509	0.24	0.4015	6.3232	1.6028	3.9437	10	186	0.851432159525659	1	0
"187"	10	28	3	4	6.42	0	3	1	1	0.761	4.9557	10.7871	-0.5606	13.2236	-3.6013	6.9619	6.7632	12.1322	2.9864	15.4756	-1.7516	7.2618	8.8471	7.6919	4.3963	8.5834	10.7701	6.7433	1.207	3.7685	0.2302	0.4438	0.3229	0.3902	0.4961	0.2777	0.2334	0.3334	0.2844	0.3819	0.4276	0.209	0.3408	0.2079	0.4277	0.4579	0.3113	0.2033	0.3423	6.322	1.6933	2.4622	10	187	-0.273121921120451	1	0
"188"	10	56	3	4	6.42	0	4	1	1	0.92	4.7384	-0.3719	5.9966	11.2688	-4.8724	11.6067	5.8328	18.0278	12.0961	5.0549	7.4679	2.7948	11.1335	2.5837	6.4872	3.6326	7.8308	1.4499	9.5589	6.0454	0.4382	0.2584	0.2007	0.2588	0.3608	0.2584	0.3574	0.2664	0.4484	0.309	0.2183	0.4553	0.5063	0.4337	0.3428	0.2051	0.3333	0.3986	0.2817	6.3314	1.4423	2.3707	10	188	-0.083381608939051	1	0
"189"	10	69	3	2	3.21	0	3	1	1	0.729	6.0459	8.592	1.3359	4.4028	1.243	1.3976	-5.2589	4.3838	4.2579	10.2034	11.0032	7.5821	4.6099	-0.4281	-1.5405	3.8859	2.2745	7.5954	-8.4249	-0.6591	0.4762	0.2252	0.3415	0.3693	0.2076	0.3469	0.2853	0.3794	0.2917	0.4074	0.3823	0.4795	0.279	0.3825	0.3252	0.355	0.289	0.2396	0.2721	6.3345	1.4472	2.1795	10	189	-0.316081546973479	1	0
"190"	10	18	3	0	0	1	11	-1	1	3.603	-4.5504	2.3116	-2.9003	-1.5734	-2.3769	-3.4598	2.7778	1.5052	-0.8495	-5.531	-7.1045	9.7701	-2.8708	2.5895	7.0074	4.0878	-3.1985	-2.7665	-2.574	10.4862	0.333	0.333	0.333	0.333	0.333	0.333	0.333	0.333	0.333	0.333	0.333	0.333	0.333	0.333	0.333	0.333	0.333	0.333	0.333	6.327	1.4609	5.0705	10	190	1.28176683176596	0	1
"191"	10	6	3	2	3.21	1	8	1	1	2.474	1.4177	-1.5111	1.493	1.5274	6.5124	1.5586	2.5239	-5.6771	1.5026	4.0421	4.1153	3.6067	1.6857	2.7691	6.1171	19.0863	7.6262	-1.6192	9.1516	0.1987	0.333	0.333	0.333	0.333	0.333	0.333	0.333	0.333	0.333	0.333	0.333	0.333	0.333	0.333	0.333	0.333	0.333	0.333	0.333	6.327	1.5418	4.0246	10	191	0.905836273970296	1	0
"192"	10	64	3	-4	-6.42	0	8	-1	1	2.472	-4.6631	1.684	-6.8339	-8.438	-2.8671	-5.9933	-9.1507	-10.5046	-4.5208	-8.3963	-6.6207	3.2786	-10.2607	-1.8045	-4.8347	-17.2692	-13.6695	-10.5058	-3.8562	-2.2936	0.297	0.2713	0.2104	0.2652	0.4362	0.3741	0.3269	0.4631	0.4001	0.2932	0.2598	0.3767	0.2097	0.2677	0.5054	0.2155	0.2551	0.4149	0.4768	6.3193	1.5858	4.0729	10	192	0.905027539595444	0	1
"193"	10	55	3	2	3.21	0	3	1	1	0.871	6.3719	3.1836	9.694	0.6306	1.5836	-6.6708	-2.6008	5.4509	9.1885	6.5689	1.1099	-2.7464	3.3243	6.2216	11.1164	-2.7386	8.8076	4.4176	-2.6887	2.6895	0.2191	0.4176	0.269	0.4424	0.2745	0.5226	0.3522	0.3224	0.2263	0.2854	0.234	0.324	0.2652	0.3737	0.4279	0.257	0.4621	0.338	0.3069	6.3204	1.445	2.3222	10	193	-0.138113302129634	1	0
"194"	10	24	3	-1	-1.605	0	3	1	0	0.973	0.388	13.9268	-1.9648	8.705	1.5531	-4.1385	-2.5666	-7.3202	-3.2023	-6.2948	-3.3314	-5.5989	-3.4097	-2.9488	-2.4354	-0.8004	-3.7984	-3.7163	-2.2586	-0.9935	0.2933	0.2175	0.4862	0.3745	0.4958	0.2587	0.3161	0.2054	0.2849	0.3604	0.3093	0.2137	0.4884	0.4573	0.2006	0.2423	0.4048	0.4374	0.2875	6.3341	1.6047	2.5901	10	194	-0.027371196796132	1	0
"195"	10	15	3	-4	-6.42	1	3	-1	1	0.936	-6.9191	-10.5577	-11.0257	-13.8419	-8.7217	1.4252	-0.176	-1.0963	-6.3289	-8.8015	-8.2951	-3.6476	-15.21	-11.0416	-6.1545	-6.5774	-10.2203	1.5335	-2.0908	-1.2751	0.333	0.333	0.333	0.333	0.333	0.333	0.333	0.333	0.333	0.333	0.333	0.333	0.333	0.333	0.333	0.333	0.333	0.333	0.333	6.327	1.6454	2.5873	10	195	-0.0661398025045449	0	1
"196"	10	29	3	-4	-6.42	1	7	-1	1	2.249	-9.5572	-10.2674	-4.0246	-6.6915	0.719	-7.2937	-3.8966	-2.0531	-8.5032	-5.6114	-3.804	-8.1921	-6.0362	-4.594	-5.9765	-2.5984	-15.0919	-11.5465	-17.3126	4.2495	0.333	0.333	0.333	0.333	0.333	0.333	0.333	0.333	0.333	0.333	0.333	0.333	0.333	0.333	0.333	0.333	0.333	0.333	0.333	6.327	1.6262	3.8831	10	196	0.810485672977179	0	1
"197"	10	40	3	1	1.605	0	6	1	1	1.606	3.8891	3.973	-8.5156	4.0939	11.1182	-4.5615	3.015	4.5462	-6.1326	7.5385	0.6719	1.1835	1.4426	10.0659	0.2507	4.3468	-2.3492	-0.5203	-2.7115	0.254	0.3226	0.428	0.298	0.2429	0.2	0.4021	0.2376	0.363	0.4657	0.504	0.3812	0.2936	0.5204	0.2637	0.3575	0.2134	0.3118	0.2229	0.3029	6.3311	1.6342	3.2568	10	197	0.47374661552457	1	0
"198"	10	47	3	1	1.605	1	8	1	1	2.356	-1.9619	0.3402	10.0876	0.3544	1.9376	1.0819	2.1863	2.5176	8.585	5.4627	3.4955	8.6028	-8.1112	-2.5415	-4.2183	-0.3975	4.3221	2.1165	4.9711	-8.1129	0.333	0.333	0.333	0.333	0.333	0.333	0.333	0.333	0.333	0.333	0.333	0.333	0.333	0.333	0.333	0.333	0.333	0.333	0.333	6.327	1.7251	4.0904	10	198	0.85696526578934	1	0
"199"	10	23	3	-2	-3.21	0	5	-1	1	1.331	-5.6042	-11.7891	-4.1211	-2.3507	4.8839	-0.8559	3.8417	-0.43	-10.9123	-4.553	0.1369	-3.186	-4.2484	-11.6505	4.2898	-8.6346	-5.6853	-0.0129	0.2897	-3.5212	0.2472	0.4927	0.2098	0.2872	0.4145	0.4723	0.2624	0.3246	0.2411	0.3636	0.4477	0.3633	0.2906	0.2586	0.37	0.4381	0.2526	0.3863	0.2101	6.3329	1.6232	2.9646	10	199	0.285930539412975	0	1
"200"	10	20	3	2	3.21	1	6	1	1	1.937	5.0342	4.9628	4.9172	1.5676	-0.735	-1.0565	-5.269	-8.3458	0.3511	6.1007	8.3315	-3.407	5.934	11.5057	9.5523	4.1132	6.3673	7.707	1.3277	5.193	0.333	0.333	0.333	0.333	0.333	0.333	0.333	0.333	0.333	0.333	0.333	0.333	0.333	0.333	0.333	0.333	0.333	0.333	0.333	6.327	1.4257	3.3709	10	200	0.661140384424859	1	0
"201"	10	59	3	-1	-1.605	1	19	-1	1	6.202	0.6338	0.0463	0.559	-9.7861	2.4258	4.3659	-0.9551	8.9532	-5.6128	4.5821	-3.6019	-5.3847	1.8587	1.4303	-6.9526	-0.1189	-8.1909	-5.8989	-8.397	-1.7864	0.333	0.333	0.333	0.333	0.333	0.333	0.333	0.333	0.333	0.333	0.333	0.333	0.333	0.333	0.333	0.333	0.333	0.333	0.333	6.327	1.42	7.6193	10	201	1.82487182067826	0	1
"202"	10	70	3	4	6.42	0	6	1	1	1.849	3.0148	7.5338	-1.0114	6.3513	6.1074	3.7562	6.741	12.3886	20.1977	8.4336	3.4441	9.1544	11.179	8.4323	2.3366	1.3435	2.2515	12.6081	0.6865	3.9763	0.3387	0.2821	0.2133	0.5034	0.2133	0.3306	0.2743	0.4568	0.3772	0.4545	0.3985	0.2268	0.3978	0.2937	0.3358	0.2729	0.4073	0.3152	0.2418	6.3341	1.6346	3.4835	10	202	0.614644952404988	1	0
"203"	10	14	3	4	6.42	0	5	1	1	1.57	2.9952	7.6125	7.3324	4.9614	-6.7224	7.8494	3.8879	14.8582	6.5716	3.4966	5.6061	6.8204	-1.0083	2.2741	11.2176	9.7636	12.487	5.8929	8.822	12.2941	0.4942	0.2489	0.3936	0.4304	0.5207	0.2441	0.3035	0.207	0.4181	0.2287	0.5268	0.2699	0.3204	0.2233	0.5052	0.2458	0.2784	0.2457	0.2174	6.3222	1.6938	3.2704	10	203	0.451075619360217	1	0
"204"	10	3	3	-1	-1.605	1	5	-1	1	1.653	-0.8348	-1.7303	-4.6278	-11.9429	-6.9934	-0.151	-6.9081	0.9631	1.1955	-4.3808	4.105	-5.8579	-4.6339	6.1111	7.8562	2.2305	-2.1352	-5.476	-2.5328	3.0966	0.333	0.333	0.333	0.333	0.333	0.333	0.333	0.333	0.333	0.333	0.333	0.333	0.333	0.333	0.333	0.333	0.333	0.333	0.333	6.327	1.4446	3.1208	10	204	0.502591818838887	0	1
"205"	10	37	3	-2	-3.21	0	11	-1	1	3.189	-3.5682	-4.5493	-1.2977	-8.3779	-0.066	1.8885	-7.7882	-11.4354	-7.2549	-5.7119	-5.3772	-5.0861	-3.1832	6.0255	-2.6562	5.2142	-0.6731	-6.5915	-8.0174	6.2098	0.2554	0.3929	0.29	0.2188	0.261	0.3177	0.2467	0.3265	0.3735	0.2148	0.4716	0.3921	0.3227	0.4191	0.3165	0.4526	0.2057	0.4505	0.3904	6.3185	1.6264	4.8233	10	205	1.15970738802792	0	1
"206"	10	65	3	-2	-3.21	0	16	-1	1	4.893	0.9979	-2.4917	-0.8888	-1.1545	0.0999	1.3684	6.3074	-11.5599	-8.9113	3.4119	-2.2476	-2.9935	-3.773	-13.4692	-6.9795	-0.5697	-4.7588	-10.0069	-4.9714	-2.9563	0.3426	0.2764	0.3818	0.3445	0.2356	0.4452	0.2947	0.3809	0.2375	0.3024	0.3433	0.2589	0.3575	0.2647	0.4237	0.3163	0.4582	0.4061	0.2656	6.3359	1.6551	6.5601	10	206	1.58780561230699	0	1
"207"	10	61	3	1	1.605	1	10	1	1	3.116	1.5647	-3.6604	9.1796	-6.1295	-3.1784	1.3748	4.6263	0.6362	4.2076	5.8328	-2.149	3.5447	-2.2928	6.0701	-1.3514	7.3544	11.1609	4.2833	-4.7549	-3.5755	0.333	0.333	0.333	0.333	0.333	0.333	0.333	0.333	0.333	0.333	0.333	0.333	0.333	0.333	0.333	0.333	0.333	0.333	0.333	6.327	1.6293	4.7497	10	207	1.1365501280085	1	0
"208"	10	54	3	1	1.605	0	14	1	1	4.314	4.1982	2.8931	-7.0703	-0.7242	-4.5301	-3.5354	0.0853	0.3722	-4.9715	4.9883	2.7173	10.0821	7.1515	6.2743	-4.0883	8.9429	1.2158	-1.1733	2.5661	7.3537	0.202	0.2846	0.3617	0.5235	0.3443	0.2611	0.5069	0.2439	0.3682	0.2175	0.2838	0.3554	0.2472	0.3788	0.4572	0.3516	0.421	0.2391	0.2886	6.3364	1.5724	5.8976	10	208	1.46186554796696	1	0
"209"	10	48	3	2	3.21	1	3	1	1	0.99	7.0448	1.2941	-6.7166	5.7779	5.1558	-5.004	2.4343	7.1145	8.9743	0.6349	8.6292	8.337	-1.0699	10.1364	-2.2966	2.8436	4.9134	4.0192	5.1839	-4.0605	0.333	0.333	0.333	0.333	0.333	0.333	0.333	0.333	0.333	0.333	0.333	0.333	0.333	0.333	0.333	0.333	0.333	0.333	0.333	6.327	1.4189	2.4238	10	209	-0.0100503358535015	1	0
"210"	10	21	3	4	6.42	1	3	1	1	0.7	8.6081	8.6459	0.4541	3.9879	9.5362	8.0043	11.1554	10.1895	3.5024	11.6799	15.6588	-6.9023	3.7984	6.8571	1.3089	4.2354	4.6238	10.6775	6.2765	6.2192	0.333	0.333	0.333	0.333	0.333	0.333	0.333	0.333	0.333	0.333	0.333	0.333	0.333	0.333	0.333	0.333	0.333	0.333	0.333	6.327	1.485	2.1845	10	210	-0.356674943938732	1	0
"211"	10	24	4	-1	-1.605	0	8	1	0	2.65	-5.2829	1.3573	-7.6281	3.3314	-4.236	1.792	5.8277	-3.5574	4.6092	-6.6737	-0.7839	8.7304	-1.5934	-0.3604	-6.8952	-9.2468	-0.3396	-0.8391	-3.0379	-8.1206	0.2896	0.2241	0.4205	0.3097	0.3828	0.5135	0.3509	0.203	0.2959	0.343	0.2644	0.412	0.3686	0.2106	0.4792	0.3687	0.4285	0.2516	0.2048	6.3217	1.7307	4.4009	10	211	0.974559639998131	1	0
"212"	10	38	4	-1	-1.605	0	11	-1	1	3.562	-2.9979	5.9932	-4.858	-2.5352	-2.1462	1.6341	-9.0103	-4.7609	-2.1585	-7.135	-7.3207	-0.1693	-2.3562	-5.407	11.5381	-0.1472	-5.499	4.1905	3.3303	-0.6802	0.3251	0.2921	0.4409	0.323	0.2139	0.4458	0.3337	0.4172	0.2732	0.3613	0.2125	0.2824	0.3225	0.3792	0.4183	0.2325	0.2748	0.515	0.2563	6.3197	1.5502	5.1293	10	212	1.27032218486747	0	1
"213"	10	59	4	-1	-1.605	1	5	-1	1	1.421	-2.2261	-3.9459	-8.2761	-9.9065	2.4186	3.3551	-2.6132	2.479	-7.1911	-3.0796	3.9882	-5.6233	6.1637	-6.7926	-6.5074	-3.6444	4.8305	-0.6506	4.5792	0.2704	0.333	0.333	0.333	0.333	0.333	0.333	0.333	0.333	0.333	0.333	0.333	0.333	0.333	0.333	0.333	0.333	0.333	0.333	0.333	6.327	1.4528	2.8878	10	213	0.351360849114964	0	1
"214"	10	35	4	4	6.42	1	3	1	1	0.823	5.1707	6.9603	12.9246	-0.8314	0.8063	-2.5277	11.3279	7.1718	15.5701	6.2747	7.4728	11.699	4.7889	1.1647	-0.5483	7.8256	6.7762	4.9351	9.2105	11.8301	0.333	0.333	0.333	0.333	0.333	0.333	0.333	0.333	0.333	0.333	0.333	0.333	0.333	0.333	0.333	0.333	0.333	0.333	0.333	6.327	1.6232	2.4568	10	214	-0.194799078305067	1	0
"215"	10	55	4	2	3.21	0	3	1	1	1.009	-0.3904	6.9495	9.0417	1.5658	1.9465	2.386	4.531	-2.6289	5.4752	2.4727	-1.9367	13.1973	-1.8649	-6.1555	9.7925	10.7963	2.4037	0.1996	5.2795	1.7241	0.2956	0.4008	0.3481	0.4263	0.215	0.297	0.2479	0.2167	0.4465	0.4067	0.295	0.3291	0.3553	0.3128	0.4022	0.3104	0.2246	0.4406	0.3509	6.3215	1.6606	2.6766	10	215	0.0089597413714718	1	0
"216"	10	20	4	2	3.21	1	6	1	1	1.723	2.6644	-4.1164	-1.9036	6.5528	1.4253	2.5085	-0.2807	4.5546	-4.8687	-1.9034	4.3351	4.6924	-2.0239	8.3248	1.2376	8.1659	5.5955	2.616	10.3815	15.0367	0.333	0.333	0.333	0.333	0.333	0.333	0.333	0.333	0.333	0.333	0.333	0.333	0.333	0.333	0.333	0.333	0.333	0.333	0.333	6.327	1.6457	3.3734	10	216	0.544066957545793	1	0
"217"	10	26	4	1	1.605	0	3	1	1	0.763	5.1196	7.3675	6.7704	9.1177	-7.8865	1.416	-4.2333	-2.731	4.4722	-0.1264	-6.4151	1.8909	7.682	2.1249	8.5524	0.6214	1.4707	1.2827	-5.3715	0.5015	0.3141	0.3793	0.2188	0.2895	0.4099	0.504	0.472	0.2095	0.2467	0.3541	0.3078	0.4378	0.4839	0.3021	0.2132	0.2958	0.4131	0.2684	0.2108	6.331	1.5573	2.3304	10	217	-0.27049724769768	1	0
"218"	10	31	4	-1	-1.605	1	20	1	0	7.367	-2.3308	1.0483	3.4416	-12.6046	-7.5549	4.4145	-1.5219	-1.3142	-0.5886	-4.7607	-5.0931	-5.4537	6.6963	-8.899	1.5037	-3.2771	-2.2004	4.7067	1.4497	1.7378	0.333	0.333	0.333	0.333	0.333	0.333	0.333	0.333	0.333	0.333	0.333	0.333	0.333	0.333	0.333	0.333	0.333	0.333	0.333	6.327	1.7132	9.0847	10	218	1.99701056770068	1	0
"219"	10	63	4	4	6.42	1	4	1	1	1.025	5.917	14.8954	8.2103	5.728	-0.6602	-3.3378	10.9155	7.8167	8.9996	-4.1435	7.1201	7.907	4.7878	6.6903	12.2982	12.1142	3.597	10.38	3.9725	6.1895	0.333	0.333	0.333	0.333	0.333	0.333	0.333	0.333	0.333	0.333	0.333	0.333	0.333	0.333	0.333	0.333	0.333	0.333	0.333	6.327	1.7156	2.7426	10	219	0.0246926125903714	1	0
"220"	10	22	4	-4	-6.42	0	4	-1	1	1.202	-2.6664	-2.5991	-10.948	-1.5003	-14.4194	-14.0208	-1.1124	-2.5298	0.0527	-5.3952	-2.8367	-5.8941	-1.9583	-5.7942	-6.5462	-12.352	-3.4127	-15.6433	-9.5759	-8.6633	0.3295	0.2604	0.3949	0.2495	0.3261	0.4075	0.3439	0.4876	0.3165	0.2551	0.4227	0.2842	0.3161	0.4201	0.2663	0.4061	0.2139	0.2895	0.3446	6.3346	1.6856	2.8863	10	220	0.183986836113016	0	1
"221"	10	42	4	4	6.42	0	3	1	1	0.902	10.1166	10.5326	7.9331	7.0208	3.9981	2.0787	9.9845	12.8976	12.4215	0.5059	8.1083	4.7954	-0.925	0.1859	8.7121	11.9413	-5.1386	6.8147	5.976	11.1045	0.4725	0.3132	0.2389	0.3047	0.4252	0.3895	0.2444	0.2974	0.3738	0.2529	0.4126	0.3502	0.2135	0.338	0.2621	0.443	0.2006	0.4882	0.3045	6.325	1.4536	2.3693	10	221	-0.103140758919513	1	0
"222"	10	2	4	-2	-3.21	1	4	-1	1	1.18	-2.8787	-7.5917	-8.2867	-3.2016	-2.3091	-11.7936	-6.3517	5.4673	-10.9046	-7.392	-4.6953	-7.3366	-2.8713	3.1942	0.7804	0.1863	-1.132	1.9211	4.4862	-5.2792	0.333	0.333	0.333	0.333	0.333	0.333	0.333	0.333	0.333	0.333	0.333	0.333	0.333	0.333	0.333	0.333	0.333	0.333	0.333	6.327	1.4149	2.6139	10	222	0.165514438477573	0	1
"223"	10	65	4	-2	-3.21	0	8	-1	1	2.274	-3.1267	2.9052	5.2401	-3.1223	-8.9427	0.2873	-8.5616	-4.0452	-7.6067	-4.4077	-0.1217	-9.4062	-0.6061	-0.746	-1.8311	2.6652	-1.0062	-15.1049	-6.5676	-1.0672	0.2017	0.3761	0.217	0.2615	0.3681	0.4212	0.2886	0.4623	0.2704	0.2985	0.367	0.3337	0.2344	0.2861	0.4712	0.3803	0.2398	0.4985	0.3593	6.3358	1.5373	3.8245	10	223	0.821540395328344	0	1
"224"	10	23	4	-2	-3.21	0	4	-1	1	1.115	0.0399	-14.4931	-2.4766	-3.411	2.2877	-3.0159	2.1327	-0.5409	-8.0447	-4.1825	-6.3614	-5.9292	0.0482	3.6107	3.1535	-6.7325	-13.28	0.6392	-6.0436	-0.1525	0.4284	0.225	0.4446	0.4157	0.2683	0.3224	0.2387	0.4086	0.3668	0.2227	0.3519	0.2437	0.3523	0.2596	0.4847	0.3264	0.2209	0.2847	0.4594	6.3247	1.5925	2.716	10	224	0.108854404912082	0	1
"225"	10	12	4	1	1.605	0	3	1	1	1.016	-1.5977	7.0198	-3.1114	4.6009	7.4247	3.6553	0.5191	2.6273	-1.7255	5.4458	-9.8044	8.6708	1.3503	0.0643	-6.3709	4.3871	-1.6546	8.8853	3.4102	-3.3364	0.2682	0.5319	0.2909	0.4882	0.3611	0.2022	0.4421	0.356	0.2506	0.293	0.2577	0.3248	0.3592	0.2358	0.3638	0.2012	0.4113	0.4709	0.2196	6.3285	1.7211	2.7503	10	225	0.0158733491562902	1	0
"226"	10	10	4	-1	-1.605	0	13	1	0	4.049	-4.2915	6.3354	-7.8764	5.9872	-1.3936	-8.723	-7.3173	-3.5196	2.277	-3.5384	1.6011	-4.143	-5.8368	5.2005	-0.1486	-7.4382	2.0959	-1.6261	-3.508	5.5252	0.2617	0.3347	0.2802	0.3808	0.2311	0.3228	0.4158	0.31	0.4798	0.223	0.2778	0.2341	0.3787	0.2228	0.5264	0.2511	0.4579	0.2385	0.4973	6.3244	1.4707	5.5331	10	226	1.39846993705002	1	0
"227"	10	1	4	-4	-6.42	1	3	-1	1	0.864	-7.4991	-10.8482	1.0076	-9.9691	-10.7956	-8.3609	-2.31	-7.4767	-3.2492	-13.2939	-8.9678	-17.8561	-8.4426	0.7392	-3.2074	1.2976	-4.1117	-4.2098	-1.5642	-8.2958	0.333	0.333	0.333	0.333	0.333	0.333	0.333	0.333	0.333	0.333	0.333	0.333	0.333	0.333	0.333	0.333	0.333	0.333	0.333	6.327	1.6692	2.548	10	227	-0.146182510178081	0	1
"228"	10	4	4	0	0	1	4	1	0	1.004	0.3643	9.7796	0.9881	-1.7596	-0.6213	1.6386	-6.3314	-8.0777	1.7873	0.6969	3.0066	4.0415	3.5766	-2.2622	5.0936	-0.9708	-0.9468	3.448	-12.9809	0.7777	0.333	0.333	0.333	0.333	0.333	0.333	0.333	0.333	0.333	0.333	0.333	0.333	0.333	0.333	0.333	0.333	0.333	0.333	0.333	6.327	1.7061	2.7211	10	228	0.00399202126953746	1	0
"229"	10	58	4	-2	-3.21	1	4	-1	1	1.132	-6.414	-7.2226	-1.5329	-1.8589	-2.832	-11.2133	-7.6487	-1.1516	-3.1577	7.444	1.3674	-4.0327	-4.5282	6.6282	0.0544	-3.8863	-9.6877	-8.7072	-6.9233	0.6893	0.333	0.333	0.333	0.333	0.333	0.333	0.333	0.333	0.333	0.333	0.333	0.333	0.333	0.333	0.333	0.333	0.333	0.333	0.333	6.327	1.4399	2.5827	10	229	0.123985979780991	0	1
"230"	10	66	4	-1	-1.605	0	6	-1	1	2.179	-3.7641	-3.0035	2.2273	-7.3485	-6.1114	10.6791	-3.104	0.5434	9.7994	-3.6604	-5.0248	2.052	-2.786	-2.5316	-3.1068	-4.1644	0.1198	-0.9966	-2.4731	-10.7494	0.4334	0.5209	0.359	0.2876	0.3301	0.259	0.2862	0.4201	0.2328	0.206	0.2513	0.4157	0.4953	0.3364	0.2208	0.2677	0.3967	0.2475	0.3514	6.318	1.4177	3.596	10	230	0.778866055962483	0	1
"231"	10	62	4	2	3.21	1	9	1	1	2.741	2.6504	-3.4575	0.1599	2.6187	10.0412	-6.5543	0.4118	8.5446	-1.8153	2.5291	11.0345	1.2053	1.1863	6.6707	0.6225	6.4176	14.1136	1.8762	5.0977	2.4428	0.333	0.333	0.333	0.333	0.333	0.333	0.333	0.333	0.333	0.333	0.333	0.333	0.333	0.333	0.333	0.333	0.333	0.333	0.333	6.327	1.4003	4.1416	10	231	1.00832281732065	1	0
"232"	10	54	4	1	1.605	0	3	1	1	0.957	2.2676	12.4924	3.8808	0.7153	-4.6654	-3.9456	6.7278	2.9404	1.801	2.7622	-0.9813	-5.6485	3.0054	5.477	1.3576	2.8074	-5.3307	1.4284	9.6543	-6.029	0.3146	0.4136	0.3761	0.2039	0.2456	0.2012	0.3253	0.4343	0.3647	0.2894	0.3233	0.4356	0.4921	0.2939	0.3655	0.3376	0.4453	0.2487	0.2136	6.3243	1.6042	2.5579	10	232	-0.0439518875291828	1	0
"233"	10	11	4	0	0	0	8	1	0	2.457	-1.4209	-8.0054	0.603	1.8373	3.4641	5.1844	8.0261	5.5964	-1.5182	-6.348	0.9576	1.9614	-6.0227	-4.8288	7.4929	-2.3011	6.5381	-2.1466	-5.9922	-2.0836	0.531	0.2042	0.2917	0.2369	0.5006	0.2182	0.3222	0.2725	0.3423	0.2701	0.2101	0.2685	0.4057	0.3685	0.3307	0.5051	0.2033	0.466	0.3719	6.3194	1.4546	3.9072	10	233	0.898941093539042	1	0
"234"	10	9	4	-2	-3.21	0	4	-1	1	0.847	-6.9465	-9.0498	-12.3339	-3.4899	-6.6545	-0.851	9.1846	4.5315	-5.9971	-7.5721	-0.975	0.4329	-1.4072	-6.1665	-2.0398	-2.7618	-1.9593	-1.9312	-8.0782	1.698	0.2929	0.2129	0.2481	0.3728	0.4849	0.2954	0.4026	0.2796	0.3449	0.4737	0.5008	0.253	0.227	0.4303	0.2732	0.4718	0.2448	0.2103	0.3069	6.3258	1.6833	2.531	10	234	-0.166054584330083	0	1
"235"	10	52	4	-1	-1.605	0	8	-1	1	2.265	-2.4793	-4.2451	2.3139	-6.6118	4.0456	-11.4492	-4.4737	4.2786	2.7241	8.9116	1.8418	-7.6112	-4.5456	-0.5201	-0.1687	-2.1592	1.3103	-4.5463	-8.3568	-0.6906	0.2365	0.3736	0.2661	0.4093	0.2993	0.3402	0.2579	0.3209	0.4355	0.4753	0.2134	0.2725	0.3736	0.4129	0.2312	0.3774	0.4567	0.2752	0.3035	6.3311	1.4156	3.6987	10	235	0.817574758934997	0	1
"236"	10	57	4	-4	-6.42	1	4	-1	1	1.015	-9.1695	-4.3782	-2.1275	-15.2243	-1.2529	-1.7939	-4.3436	-2.0062	-11.31	-4.2721	-10.3609	-9.8952	-0.9324	-0.0241	-13.5601	-3.1368	-9.3719	-11.1816	-13.1744	-0.4114	0.333	0.333	0.333	0.333	0.333	0.333	0.333	0.333	0.333	0.333	0.333	0.333	0.333	0.333	0.333	0.333	0.333	0.333	0.333	6.327	1.6279	2.6661	10	236	0.0148886124937506	0	1
"237"	10	51	4	-2	-3.21	0	6	-1	1	1.833	0.0369	-10.0758	4.2795	-0.2342	-6.0751	-2.4223	4.0145	-2.6537	-9.5012	-1.8808	-2.6856	-7.0031	-5.1287	-6.8242	-3.4947	-2.7155	-14.4257	2.7418	4.9252	-3.7289	0.2993	0.4033	0.2337	0.444	0.4015	0.3074	0.2004	0.2627	0.4433	0.2703	0.3683	0.231	0.4235	0.4753	0.2358	0.3258	0.2161	0.5221	0.2705	6.3344	1.6812	3.5342	10	237	0.605953968857568	0	1
"238"	10	53	4	0	0	0	20	1	1	7.966	-0.7123	0.1502	0.2396	7.2406	-5.2033	1.9083	8.5441	-6.9047	-7.5313	5.0147	-6.7595	1.8523	-3.9142	-0.0047	5.9535	-4.2502	5.1533	1.5485	-5.4898	1.3758	0.2928	0.4655	0.5034	0.2738	0.2174	0.2434	0.4811	0.4193	0.2413	0.2068	0.3921	0.3476	0.2673	0.3116	0.4724	0.2406	0.3706	0.2639	0.3164	6.3273	1.7258	9.6999	10	238	2.07518248475945	1	0
"239"	10	19	4	1	1.605	1	9	1	1	2.858	0.5442	2.5238	-4.8256	-0.1316	-8.0309	0.4008	9.2516	0.7837	2.3149	5.8158	3.6598	1.747	-5.6136	5.6821	11.336	-6.4059	3.9105	0.3171	7.3017	3.0454	0.333	0.333	0.333	0.333	0.333	0.333	0.333	0.333	0.333	0.333	0.333	0.333	0.333	0.333	0.333	0.333	0.333	0.333	0.333	6.327	1.4127	4.2756	10	239	1.05012207950768	1	0
"240"	10	16	4	-2	-3.21	1	6	-1	1	1.7	-5.8292	3.6696	-10.634	-10.8158	-5.9778	1.1665	-2.2476	-9.5741	-5.9566	-9.3284	-4.7806	0.9186	1.3092	5.4595	-3.0553	-7.9632	-2.7428	3.1668	-2.1847	-0.6491	0.333	0.333	0.333	0.333	0.333	0.333	0.333	0.333	0.333	0.333	0.333	0.333	0.333	0.333	0.333	0.333	0.333	0.333	0.333	6.327	1.4822	3.1836	10	240	0.53062825106217	0	1
"241"	10	5	4	1	1.605	1	12	1	1	3.782	3.8462	4.9573	3.3045	-5.8344	3.6437	-0.9481	-2.8766	-4.2582	4.2034	7.6043	-0.0846	-0.3721	0.7668	3.3905	14.258	-3.6722	9.4122	-4.1398	-0.3198	-0.3221	0.333	0.333	0.333	0.333	0.333	0.333	0.333	0.333	0.333	0.333	0.333	0.333	0.333	0.333	0.333	0.333	0.333	0.333	0.333	6.327	1.6015	5.3829	10	241	1.33025297023627	1	0
"242"	10	60	4	0	0	1	13	-1	1	4.124	-0.579	4.234	-5.3035	-1.3753	6.9095	-2.8241	9.395	-4.1569	0.6099	-4.6932	-8.5479	-3.1086	-3.2032	-0.2218	-6.5322	5.5166	2.153	2.9129	3.0915	5.9826	0.333	0.333	0.333	0.333	0.333	0.333	0.333	0.333	0.333	0.333	0.333	0.333	0.333	0.333	0.333	0.333	0.333	0.333	0.333	6.327	1.583	5.7079	10	242	1.41682356615471	0	1
"243"	10	67	4	0	0	0	20	1	1	7.06	3.1908	-2.4719	1.8132	-1.8863	5.4549	5.0525	1.3847	0.4602	-8.8951	-0.6763	3.538	-9.3973	-5.759	2.3156	3.2246	-2.0228	-7.2354	3.3214	9.7694	-1.4135	0.3115	0.2114	0.2397	0.4561	0.4942	0.2585	0.2047	0.3671	0.4691	0.3646	0.2225	0.4813	0.2234	0.4271	0.2492	0.3544	0.5099	0.2015	0.2873	6.3335	1.5409	8.6112	10	243	1.95444505150515	1	0
"244"	10	21	4	4	6.42	1	3	1	1	0.941	7.3369	10.2808	-3.2743	14.2536	6.2051	8.2604	1.0815	0.7252	-0.4738	11.9356	4.0065	5.9152	6.3168	4.2826	9.0637	6.5158	4.5739	6.5451	6.5552	18.0361	0.333	0.333	0.333	0.333	0.333	0.333	0.333	0.333	0.333	0.333	0.333	0.333	0.333	0.333	0.333	0.333	0.333	0.333	0.333	6.327	1.655	2.5919	10	244	-0.0608121393967575	1	0
"245"	10	8	4	-4	-6.42	0	4	-1	1	1.214	-7.7978	-5.2686	-12.7294	-0.6852	-5.1754	-9.2343	-6.6889	-5.6597	-10.0267	-2.1548	-2.4461	-5.4038	-0.9558	-16.8294	-13.7809	-6.9611	-3.9409	-12.4558	2.5874	-2.4929	0.2447	0.3299	0.5265	0.3283	0.229	0.2652	0.2957	0.3257	0.4417	0.2294	0.4856	0.2914	0.391	0.4769	0.4208	0.2294	0.3577	0.2128	0.2478	6.3296	1.4887	2.7144	10	245	0.193920692637306	0	1
"246"	10	18	4	0	0	1	13	-1	0	4.294	-4.7338	3.1496	-3.9852	-4.5746	1.6138	3.4384	3.2133	4.4468	-2.9755	-8.2609	-0.3879	-9.0335	-3.0423	3.335	7.1979	6.2113	-4.3913	-2.2444	6.2682	5.3494	0.333	0.333	0.333	0.333	0.333	0.333	0.333	0.333	0.333	0.333	0.333	0.333	0.333	0.333	0.333	0.333	0.333	0.333	0.333	6.327	1.4123	5.7279	10	246	1.45721869945659	0	1
"247"	10	68	4	1	1.605	0	3	1	1	0.966	2.0895	5.5796	-2.0851	-1.6108	1.8687	-6.287	-8.0378	10.343	-0.1718	2.08	4.4193	-0.4991	-2.6379	2.1295	-0.0655	8.1122	-3.1402	6.6932	6.8737	7.0362	0.247	0.3665	0.3919	0.2536	0.3787	0.2392	0.3489	0.4803	0.238	0.2907	0.4594	0.2325	0.3384	0.2737	0.2342	0.4598	0.4215	0.265	0.4162	6.3355	1.4817	2.4665	10	247	-0.0345914447696191	1	0
"248"	10	40	4	1	1.605	0	15	1	1	4.621	-1.7746	-9.5408	3.0569	-4.6291	-3.2318	6.3487	4.8024	1.9425	-0.7848	1.5871	0.6589	3.7765	4.1416	-0.0838	-0.5277	14.8946	3.3115	3.0608	5.8984	-1.1631	0.3382	0.3914	0.3419	0.2022	0.4302	0.5058	0.2747	0.2176	0.3189	0.2113	0.4192	0.2402	0.2716	0.4537	0.4124	0.4968	0.295	0.2225	0.2865	6.33	1.51	6.138	10	248	1.53061113188813	1	0
"249"	10	29	4	-4	-6.42	1	3	-1	1	0.796	-9.3585	-2.9753	-9.277	2.4008	-1.7732	-9.3953	-3.7827	-10.9262	-14.8732	-10.1856	-13.4939	-5.5263	-15.2732	-2.0879	-2.9562	-7.3645	-0.5063	-1.9872	-4.4968	-4.9482	0.333	0.333	0.333	0.333	0.333	0.333	0.333	0.333	0.333	0.333	0.333	0.333	0.333	0.333	0.333	0.333	0.333	0.333	0.333	6.327	1.54	2.3469	10	249	-0.228156093137754	0	1
"250"	10	36	4	-4	-6.42	0	3	-1	1	1.036	-7.128	-6.7752	-16.1609	1.0837	-14.3265	-8.7855	-3.6799	-3.1849	-6.4786	-0.5706	-12.7624	-4.6603	-7.2582	-9.9289	-7.0171	2.0489	-8.9734	-2.2688	-10.1853	-1.7669	0.2284	0.3295	0.4961	0.4582	0.3234	0.3599	0.4053	0.2887	0.2054	0.5036	0.4031	0.2935	0.215	0.2515	0.2186	0.4019	0.3669	0.2599	0.3092	6.3182	1.5306	2.5699	10	250	0.0353671438372913	0	1
"251"	10	69	4	2	3.21	0	4	1	1	1.07	1.981	3.701	11.44	-6.6551	-0.6753	1.9964	5.5586	5.1186	-2.4184	-0.0928	7.912	-0.5737	-5.3253	10.3626	5.7888	8.8465	1.3728	5.0012	7.2432	2.3147	0.2557	0.3559	0.2235	0.3205	0.4534	0.4835	0.2512	0.3818	0.2298	0.3538	0.3197	0.3603	0.2506	0.512	0.2659	0.352	0.2306	0.282	0.45	6.3321	1.4147	2.4872	10	251	0.0676586484738149	1	0
"252"	10	56	4	4	6.42	0	3	1	1	0.737	11.1981	2.3583	1.7231	11.8531	8.7442	13.4744	5.5588	4.2172	10.5222	7.077	-1.7061	10.3976	10.0856	-0.2805	6.9505	1.0437	9.0498	1.0147	13.8691	-0.619	0.2434	0.3602	0.4166	0.3611	0.3918	0.214	0.5119	0.2267	0.3884	0.2155	0.3871	0.4234	0.2221	0.4837	0.2928	0.225	0.4226	0.2166	0.3161	6.3191	1.5955	2.3376	10	252	-0.3051673867928	1	0
"253"	10	39	4	0	0	0	3	1	1	1.059	0.3453	6.534	3.3954	-3.1563	-8.9425	-1.9298	-1.8967	5.0476	2.133	1.5432	3.9729	3.6705	-1.4282	-4.2459	-3.2942	2.8269	-10.0275	-0.8083	10.0441	-2.3934	0.3742	0.5158	0.4452	0.2763	0.2387	0.3909	0.3195	0.3735	0.2704	0.2344	0.4176	0.3129	0.2761	0.319	0.4656	0.2457	0.2946	0.244	0.3042	6.3186	1.721	2.7931	10	253	0.0573250666192694	1	0
"254"	10	14	4	4	6.42	0	2	1	1	0.709	9.4676	8.8136	-2.2582	3.0483	11.3484	-0.0316	0.4786	9.6512	11.6404	11.6337	-1.89	11.745	7.754	8.7883	7.4215	8.8958	9.1689	-1.8357	9.9134	5.1963	0.4507	0.4823	0.4294	0.3902	0.2071	0.3693	0.3329	0.2408	0.2904	0.5	0.2596	0.2231	0.2824	0.3504	0.2565	0.3615	0.4378	0.222	0.2485	6.3351	1.6267	2.3426	10	254	-0.34389975245001	1	0
"255"	10	25	4	0	0	0	20	-1	1	6.947	0.6615	1.5433	-6.6895	3.5612	-2.0232	2.8731	3.4302	5.686	-6.5545	5.9627	1.1819	-7.1774	8.4739	2.5811	-6.7098	1.1865	3.1316	0.4835	-0.2842	-9.5887	0.2873	0.376	0.2314	0.3301	0.4331	0.2867	0.5073	0.2245	0.4265	0.3622	0.2551	0.5273	0.226	0.3614	0.2116	0.309	0.2723	0.4561	0.2433	6.327	1.643	8.5978	10	255	1.93830991171074	0	1
"256"	10	43	4	-4	-6.42	1	3	-1	1	0.815	-9.8751	0.6527	-7.8791	-7.326	-15.0107	1.187	-3.9038	-6.2113	-5.533	-13.4333	0.2603	-10.1389	-6.6904	-2.2067	-14.9638	-5.8669	0.0542	-11.0599	-7.3451	-3.4387	0.333	0.333	0.333	0.333	0.333	0.333	0.333	0.333	0.333	0.333	0.333	0.333	0.333	0.333	0.333	0.333	0.333	0.333	0.333	6.327	1.6697	2.4822	10	256	-0.204567165741274	0	1
"257"	10	33	4	1	1.605	1	20	1	1	7.14	1.8285	1.8711	-0.7577	-3.9548	-2.0394	3.8495	-1.1519	3.282	-5.7937	-0.8907	7.0654	1.5372	-3.6468	4.6952	0.725	8.6107	-6.8439	7.5192	1.4012	12.9609	0.333	0.333	0.333	0.333	0.333	0.333	0.333	0.333	0.333	0.333	0.333	0.333	0.333	0.333	0.333	0.333	0.333	0.333	0.333	6.327	1.4237	8.5572	10	257	1.96571277635149	1	0
"258"	10	3	4	-1	-1.605	1	3	-1	1	0.878	-5.3529	-1.3499	-3.1518	-5.2061	1.3688	-8.4351	6.3143	-2.7985	-0.9435	3.3851	3.1572	-2.0113	4.649	-4.9925	-12.5004	5.3098	-1.0084	-6.2982	-5.2701	3.9477	0.333	0.333	0.333	0.333	0.333	0.333	0.333	0.333	0.333	0.333	0.333	0.333	0.333	0.333	0.333	0.333	0.333	0.333	0.333	6.327	1.6947	2.5957	10	258	-0.13010868534702	0	1
"259"	10	30	4	-2	-3.21	1	3	-1	1	0.718	-7.9135	-5.5088	-8.0879	-3.0397	-6.6978	-1.1363	-2.325	-2.4687	5.8369	-2.8293	-10.7555	-9.4751	-0.1699	-8.6389	3.9914	-2.0366	-3.8551	-3.5437	-2.645	8.6154	0.333	0.333	0.333	0.333	0.333	0.333	0.333	0.333	0.333	0.333	0.333	0.333	0.333	0.333	0.333	0.333	0.333	0.333	0.333	6.327	1.4124	2.1523	10	259	-0.331285709933913	0	1
"260"	10	37	4	-2	-3.21	0	5	-1	1	1.817	-5.5927	-2.9748	4.1853	-6.3478	-4.1331	0.0187	-9.4385	-6.6782	10.3697	-9.9902	-2.7086	-3.5442	-8.6766	-3.8643	-3.2204	-3.6619	-7.7437	-0.2079	2.5368	-3.9104	0.2552	0.4894	0.3667	0.5016	0.4661	0.3537	0.2033	0.4297	0.3687	0.2436	0.3115	0.2496	0.3242	0.4295	0.2461	0.2938	0.2474	0.2085	0.3334	6.3218	1.4904	3.3178	10	260	0.597186789414034	0	1
"261"	10	41	4	2	3.21	0	3	1	1	0.716	4.3883	8.0981	13.2626	1.1991	8.8807	4.9143	3.2749	-1.3566	-1.387	-3.8665	4.3236	-4.9405	-1.1206	-3.1793	5.6723	4.7898	5.946	-1.6713	10.5571	5.9501	0.2834	0.2369	0.3053	0.4603	0.4138	0.3104	0.226	0.3115	0.2635	0.5267	0.2712	0.2103	0.4616	0.2344	0.4026	0.3041	0.2741	0.5266	0.3131	6.3357	1.4046	2.1333	10	261	-0.334075112021491	1	0
"262"	10	45	4	-1	-1.605	1	13	-1	1	4.1	-2.3392	-8.3865	9.5079	3.696	-1.1061	-5.94	-0.9989	-4.0925	0.6071	-0.4841	-1.6645	-6.2081	7.1112	-0.5861	-0.1805	-2.4673	-4.7109	2.2997	-2.6731	-13.2899	0.333	0.333	0.333	0.333	0.333	0.333	0.333	0.333	0.333	0.333	0.333	0.333	0.333	0.333	0.333	0.333	0.333	0.333	0.333	6.327	1.4073	5.5171	10	262	1.41098697371026	0	1
"263"	10	70	4	4	6.42	0	3	1	1	0.718	9.0355	10.8151	3.4763	18.8694	9.5138	1.6881	6.4021	1.669	1.462	10.4473	1.3939	9.2521	-0.2236	4.8434	14.508	0.4789	4.7436	10.0662	5.7866	4.8466	0.2178	0.3244	0.3689	0.2463	0.4379	0.2742	0.2235	0.4192	0.2587	0.4017	0.2468	0.3988	0.455	0.5167	0.3183	0.4302	0.2599	0.2066	0.3227	6.3276	1.5431	2.2687	10	263	-0.331285709933913	1	0
"264"	10	17	4	-1	-1.605	1	4	-1	1	1.213	0.1716	-6.9549	-10.9545	-6.7381	3.858	-6.9989	-1.774	7.1277	-6.8777	-5.2173	-1.5694	-0.2728	0.3901	-0.3983	-2.9893	6.1866	0.487	5.9306	1.2298	-7.3925	0.333	0.333	0.333	0.333	0.333	0.333	0.333	0.333	0.333	0.333	0.333	0.333	0.333	0.333	0.333	0.333	0.333	0.333	0.333	6.327	1.4397	2.664	10	264	0.193096629961913	0	1
"265"	10	64	4	-4	-6.42	0	4	-1	1	1.108	-5.2788	-7.3619	-9.3442	-0.0391	-15.7953	-9.0259	-0.9582	-3.6108	-4.7868	-9.8976	-15.2844	-4.0611	-11.5855	-4.9283	-11.4941	-5.2271	3.4493	-5.716	-1.8758	-5.7935	0.2521	0.3091	0.4261	0.3688	0.2376	0.4601	0.2511	0.3559	0.2263	0.4299	0.3474	0.2306	0.4075	0.2807	0.3582	0.2746	0.2219	0.408	0.4767	6.3226	1.487	2.6084	10	265	0.102556588325092	0	1
"266"	10	13	4	2	3.21	0	5	1	1	1.374	3.1776	2.0013	10.5749	1.5813	-1.8514	1.262	-0.6424	4.6006	1.2543	6.6341	9.1466	2.9471	-2.8616	-4.4154	11.9398	-4.9158	0.1692	8.1636	10.2614	5.1491	0.4969	0.2719	0.3333	0.2398	0.2098	0.2813	0.3448	0.3115	0.2041	0.4112	0.5136	0.3003	0.4429	0.2142	0.4514	0.508	0.2292	0.3002	0.2587	6.3232	1.7125	3.0911	10	266	0.317726193800158	1	0
"267"	10	32	4	0	0	1	12	1	0	3.691	2.5526	3.3113	1.0917	2.7917	1.1042	-3.1625	-7.0215	-5.7205	-1.8268	2.1491	9.8197	-11.4546	3.0066	-2.9518	-4.9705	3.4678	4.4878	3.7437	3.7102	-2.7573	0.333	0.333	0.333	0.333	0.333	0.333	0.333	0.333	0.333	0.333	0.333	0.333	0.333	0.333	0.333	0.333	0.333	0.333	0.333	6.327	1.583	5.2755	10	267	1.30589742404786	1	0
"268"	10	61	4	1	1.605	1	13	1	1	4.213	0.8017	0.0032	-0.439	-0.6702	5.5119	-0.4601	6.6432	0.7729	7.6089	-8.8999	7.597	1.5183	1.4667	-4.9812	-0.7683	0.7255	7.0043	-5.9652	11.1973	3.1679	0.333	0.333	0.333	0.333	0.333	0.333	0.333	0.333	0.333	0.333	0.333	0.333	0.333	0.333	0.333	0.333	0.333	0.333	0.333	6.327	1.4507	5.6643	10	268	1.43817498299688	1	0
"269"	10	49	4	4	6.42	1	3	1	1	0.718	9.8452	2.392	-0.0849	10.5247	9.7615	11.6877	3.1877	2.484	5.1701	-3.1101	10.5929	7.7284	3.3885	8.0612	6.9692	3.0736	12.4705	1.7595	5.8514	17.7351	0.333	0.333	0.333	0.333	0.333	0.333	0.333	0.333	0.333	0.333	0.333	0.333	0.333	0.333	0.333	0.333	0.333	0.333	0.333	6.327	1.494	2.2181	10	269	-0.331285709933913	1	0
"270"	10	47	4	1	1.605	1	3	1	1	0.876	-1.9636	8.966	8.6927	4.6498	6.8269	-9.5545	2.5924	1.9163	-1.3354	2.0639	6.3315	-5.6654	-4.058	-2.4087	3.0466	-0.0589	3.4431	7.8146	3.443	-2.9422	0.333	0.333	0.333	0.333	0.333	0.333	0.333	0.333	0.333	0.333	0.333	0.333	0.333	0.333	0.333	0.333	0.333	0.333	0.333	6.327	1.4299	2.3271	10	270	-0.132389188045746	1	0
"271"	10	15	4	-4	-6.42	1	3	-1	1	0.813	-4.5321	-10.1338	-5.0254	-13.193	-9.5671	-3.7971	-3.641	-2.9162	-3.9131	-4.2828	2.8656	-0.9526	-9.2806	-4.048	-16.9412	-10.5556	-16.5547	-3.0202	-5.0431	-5.6459	0.333	0.333	0.333	0.333	0.333	0.333	0.333	0.333	0.333	0.333	0.333	0.333	0.333	0.333	0.333	0.333	0.333	0.333	0.333	6.327	1.7173	2.5472	10	271	-0.207024169434327	0	1
"272"	10	44	4	-2	-3.21	1	10	-1	1	3.277	-0.6695	-3.1228	-7.8155	-1.8423	-3.4946	1.9363	2.4589	-5.9387	-12.7743	2.1461	6.6176	-1.579	-0.3324	-3.6135	-7.7665	-6.0008	-3.4457	-6.1352	0.8982	-13.0127	0.333	0.333	0.333	0.333	0.333	0.333	0.333	0.333	0.333	0.333	0.333	0.333	0.333	0.333	0.333	0.333	0.333	0.333	0.333	6.327	1.4649	4.7611	10	272	1.18692836971668	0	1
"273"	10	27	4	2	3.21	0	2	1	1	0.684	7.2949	-0.7622	2.5855	3.277	5.7723	2.787	4.6041	6.4732	2.779	-2.5738	9.0406	6.5261	4.1914	12.3943	-10.6872	2.2598	-1.0687	-2.0676	5.6505	5.0293	0.2985	0.4288	0.3927	0.3606	0.272	0.2988	0.2566	0.4488	0.2009	0.2899	0.3773	0.4983	0.2723	0.2038	0.2404	0.3089	0.2048	0.5293	0.4431	6.3258	1.6066	2.3019	10	273	-0.379797361359587	1	0
"274"	10	7	4	4	6.42	1	2	1	1	0.625	9.6014	4.1919	10.2339	9.6745	10.7875	11.6486	10.4868	6.2301	8.6812	-7.1062	9.0821	4.4038	11.0652	5.1509	-0.7643	8.2279	4.1375	-0.4117	9.9695	2.4804	0.333	0.333	0.333	0.333	0.333	0.333	0.333	0.333	0.333	0.333	0.333	0.333	0.333	0.333	0.333	0.333	0.333	0.333	0.333	6.327	1.4329	2.0761	10	274	-0.470003629245736	1	0
"275"	10	6	4	2	3.21	1	4	1	1	1.184	-0.9599	5.8026	0.8295	-1.7337	0.6854	-1.6911	0.3776	14.1344	2.1895	12.1824	0.1078	9.8142	4.041	2.6856	-3.7656	8.7544	4.352	7.1816	0.9892	-0.5451	0.333	0.333	0.333	0.333	0.333	0.333	0.333	0.333	0.333	0.333	0.333	0.333	0.333	0.333	0.333	0.333	0.333	0.333	0.333	6.327	1.6069	2.801	10	275	0.168898536461814	1	0
"276"	10	28	4	4	6.42	0	2	1	1	0.691	3.8293	15.6679	12.2632	10.1701	4.3726	5.5046	13.1357	9.4999	13.7731	7.9996	-0.8912	3.7715	4.4809	8.2815	7.9193	1.3507	0.7719	2.3379	-1.6568	7.1423	0.3052	0.3945	0.4445	0.3519	0.4818	0.4084	0.2197	0.2472	0.3091	0.4225	0.4619	0.2875	0.3486	0.3209	0.37	0.2644	0.2007	0.2764	0.2192	6.3344	1.6247	2.3252	10	276	-0.369615455214467	1	0
"277"	10	46	4	0	0	1	3	-1	1	0.92	-0.3171	-7.9601	-6.3379	-5.3711	-1.028	9.7814	9.6919	3.4897	-5.5824	-0.7135	2.6672	-3.3189	4.0677	-6.3639	-2.2839	0.6221	6.0396	-0.9378	1.5308	0.979	0.333	0.333	0.333	0.333	0.333	0.333	0.333	0.333	0.333	0.333	0.333	0.333	0.333	0.333	0.333	0.333	0.333	0.333	0.333	6.327	1.4947	2.4205	10	277	-0.083381608939051	0	1
"278"	10	50	4	-4	-6.42	0	7	-1	1	1.945	-2.7409	-2.7042	-3.8403	-4.293	-4.0839	-5.6213	-7.5439	-9.2132	0.7584	-7.5583	-15.9136	-2.1593	-6.0729	-3.0431	1.0764	-10.9347	-1.9988	-12.1842	-14.1999	-15.0327	0.4114	0.3584	0.3108	0.2005	0.3377	0.2138	0.4221	0.3103	0.3538	0.3823	0.4414	0.2733	0.2135	0.3102	0.277	0.3924	0.2134	0.3646	0.5325	6.3195	1.5119	3.4621	10	278	0.66526197707041	0	1
"279"	10	34	4	2	3.21	1	3	1	1	0.685	3.3266	11.86	2.5121	-1.4559	-0.038	3.4623	6.9341	-0.1487	3.334	-5.5227	1.5094	3.3656	2.8825	11.6279	-4.7304	11.9046	-0.2935	-1.1865	8.5142	5.1043	0.333	0.333	0.333	0.333	0.333	0.333	0.333	0.333	0.333	0.333	0.333	0.333	0.333	0.333	0.333	0.333	0.333	0.333	0.333	6.327	1.6264	2.3194	10	279	-0.378336440719912	1	0
