"subNo"	"index"	"block"	"level"	"mean"	"periodicity"	"nEvents"	"answer"	"isCorrect"	"rt"	"s1"	"s2"	"s3"	"s4"	"s5"	"s6"	"s7"	"s8"	"s9"	"s10"	"s11"	"s12"	"s13"	"s14"	"s15"	"s16"	"s17"	"s18"	"s19"	"s20"	"t1"	"t2"	"t3"	"t4"	"t5"	"t6"	"t7"	"t8"	"t9"	"t10"	"t11"	"t12"	"t13"	"t14"	"t15"	"t16"	"t17"	"t18"	"t19"	"seqDuration"	"startInterval"	"trialDuration"	"pID"	"Trial"	"rtLog"	"right"	"left"
"1"	12	41	1	2	3.25	0	4	1	1	1.212	2.2847	4.7188	-0.136	-9.7656	5.912	2.0177	4.7854	0.5305	0.756	3.1167	1.4762	5.6068	-0.308	0.9722	8.1712	13.5076	1.4354	3.0076	4.1667	12.6446	0.4708	0.3359	0.2236	0.4195	0.2281	0.3717	0.4486	0.2666	0.4083	0.2718	0.2329	0.2013	0.4301	0.221	0.5201	0.3377	0.289	0.3697	0.2715	6.3182	1.6952	2.9126	12	1	0.192271887647123	1	0
"2"	12	31	1	-1	-1.625	1	6	-1	1	1.784	2.3689	-0.5969	-2.5255	-7.6266	1.0814	0.8754	-3.0878	1.335	7.2867	1.3217	-5.6865	2.3968	-5.8259	1.0389	-11.3975	-9.9512	-3.4857	-5.734	5.9132	-1.4046	0.333	0.333	0.333	0.333	0.333	0.333	0.333	0.333	0.333	0.333	0.333	0.333	0.333	0.333	0.333	0.333	0.333	0.333	0.333	6.327	1.5078	3.3017	12	2	0.578858034157818	0	1
"3"	12	45	1	-1	-1.625	1	10	-1	1	3.051	-2.2356	-7.6845	1.2477	-2.5884	4.9232	-4.307	-2.1671	-5.024	-6.7447	3.8422	-0.8199	-1.5493	1.2751	-0.5691	8.9825	-2.3574	-3.6215	2.1699	0.3652	-15.0773	0.333	0.333	0.333	0.333	0.333	0.333	0.333	0.333	0.333	0.333	0.333	0.333	0.333	0.333	0.333	0.333	0.333	0.333	0.333	6.327	1.6135	4.6685	12	3	1.11546940573453	0	1
"4"	12	57	1	-4	-6.5	1	9	-1	1	2.736	-5.6315	-7.2259	-1.1818	-8.7196	1.4217	-5.9066	-15.2942	-7.7238	-10.1715	-4.3258	-5.7775	-4.6231	-3.7775	-12.8053	1.342	-16.5447	-10.3569	0.1789	-5.5883	-5.5015	0.333	0.333	0.333	0.333	0.333	0.333	0.333	0.333	0.333	0.333	0.333	0.333	0.333	0.333	0.333	0.333	0.333	0.333	0.333	6.327	1.6584	4.4037	12	4	1.0064969997603	0	1
"5"	12	54	1	1	1.625	0	9	1	1	2.984	2.6064	-0.921	3.916	-7.4019	5.7851	1.9203	0.8732	-3.809	-0.8786	4.3356	12.4136	8.833	0.9873	-0.3612	1.4683	5.1191	-1.2709	9.653	-3.9095	-5.0355	0.3422	0.3678	0.4083	0.4418	0.271	0.2427	0.4171	0.2088	0.39	0.2198	0.355	0.4914	0.2518	0.2875	0.2193	0.3217	0.5213	0.2344	0.3308	6.3227	1.5808	4.5682	12	5	1.09326468234151	1	0
"6"	12	15	1	-4	-6.5	1	4	-1	1	1.135	-3.5392	-17.3388	-6.7591	-6.1633	-6.1256	-11.6739	-4.2383	-1.8073	-8.3783	-5.2956	0.0489	-7.8482	-9.7192	-1.4191	-12.1692	-0.7475	-15.6576	-6.687	-1.304	-2.1618	0.333	0.333	0.333	0.333	0.333	0.333	0.333	0.333	0.333	0.333	0.333	0.333	0.333	0.333	0.333	0.333	0.333	0.333	0.333	6.327	1.6515	2.7853	12	6	0.126632650933366	0	1
"7"	12	1	1	-4	-6.5	1	9	-1	1	2.668	-8.9587	-7.3233	-8.2193	-5.3837	-12.42	-8.3034	-8.158	-3.5016	-10.9163	-4.3918	-17.1059	-10.8258	-8.9639	-5.6965	1.1979	-11.2474	-2.5979	3.0635	-2.9755	0.8291	0.333	0.333	0.333	0.333	0.333	0.333	0.333	0.333	0.333	0.333	0.333	0.333	0.333	0.333	0.333	0.333	0.333	0.333	0.333	6.327	1.6343	4.3017	12	7	0.981329128053377	0	1
"8"	12	9	1	-2	-3.25	0	5	-1	1	1.488	-3.4864	-10.101	2.3275	-1.466	2.4658	-2.5327	-5.312	-1.135	-4.124	-2.8002	5.5782	-5.5096	1.3314	-3.7464	-18.0088	-5.631	-1.6255	-4.0549	-5.3813	-2.7276	0.2118	0.2611	0.3216	0.2419	0.4699	0.2055	0.2456	0.4105	0.2487	0.4197	0.4478	0.2549	0.3717	0.3225	0.3902	0.3531	0.248	0.5089	0.3863	6.3196	1.4911	2.989	12	8	0.3974329364109	0	1
"9"	12	32	1	0	0	1	11	1	0	3.464	1.8298	0.5354	-6.3049	-9.3609	2.796	11.0913	0.439	1.9583	-0.4329	1.2218	-7.0133	-6.3409	-0.2897	-2.2985	0.2349	7.6411	-1.1575	1.7448	5.5432	-2.8867	0.333	0.333	0.333	0.333	0.333	0.333	0.333	0.333	0.333	0.333	0.333	0.333	0.333	0.333	0.333	0.333	0.333	0.333	0.333	6.327	1.5989	5.0817	12	9	1.24242399070019	1	0
"10"	12	16	1	-2	-3.25	1	7	-1	1	2.085	-3.7905	-10.0923	0.0372	1.3872	-4.044	-4.9913	-3.2695	0.2823	-2.2364	-6.5455	-0.8626	-2.82	-4.8874	-15.6342	-5.67	5.6009	0.4352	5.1607	-8.9717	-2.4302	0.333	0.333	0.333	0.333	0.333	0.333	0.333	0.333	0.333	0.333	0.333	0.333	0.333	0.333	0.333	0.333	0.333	0.333	0.333	6.327	1.593	3.6854	12	10	0.734768855250765	0	1
"11"	12	28	1	4	6.5	0	5	1	1	1.373	8.8879	13.7066	5.7776	8.5298	6.9301	4.0492	-2.5825	11.1318	6.0978	6.4201	-2.177	-0.6694	6.4382	13.4343	7.4893	15.067	5.6562	3.5028	11.7035	1.2736	0.2807	0.4573	0.2445	0.3886	0.2975	0.3458	0.3201	0.267	0.3945	0.2897	0.2177	0.4552	0.2674	0.4977	0.446	0.216	0.4203	0.2495	0.2811	6.3364	1.4178	2.8065	12	11	0.316998126785834	1	0
"12"	12	42	1	4	6.5	0	5	1	1	1.235	1.5092	2.0432	5.0666	17.1466	7.3401	7.3235	2.8329	6.5639	10.3308	5.3918	-5.0464	5.6308	6.9359	1.9362	13.8106	2.7107	7.1917	14.2742	6.0212	10.6993	0.3474	0.2092	0.2499	0.3273	0.4171	0.3683	0.1999	0.2874	0.467	0.2912	0.4645	0.3509	0.2193	0.3028	0.4336	0.2792	0.3375	0.4191	0.349	6.3204	1.5755	2.8195	12	12	0.211070970079941	1	0
"13"	12	18	1	0	0	1	7	1	1	2.118	2.295	-4.776	-1.3364	0.4854	0.4051	6.4996	8.8115	7.47	1.0134	-1.0304	-10.4878	-5.8005	-0.312	2.3804	-6.2984	1.7382	-5.4982	2.3172	4.5255	-2.4199	0.333	0.333	0.333	0.333	0.333	0.333	0.333	0.333	0.333	0.333	0.333	0.333	0.333	0.333	0.333	0.333	0.333	0.333	0.333	6.327	1.7143	3.8355	12	13	0.750472247179215	1	0
"14"	12	4	1	0	0	1	7	-1	1	2.177	0.3131	-0.5616	1.8842	-7.0225	-7.0392	-3.0959	1.4776	-1.9113	-2.3886	1.2862	-7.7329	-4.7566	5.1206	5.1914	4.8032	7.5038	-0.3128	6.7661	-6.911	7.5811	0.333	0.333	0.333	0.333	0.333	0.333	0.333	0.333	0.333	0.333	0.333	0.333	0.333	0.333	0.333	0.333	0.333	0.333	0.333	6.327	1.6799	3.8611	12	14	0.77794778225241	0	1
"15"	12	64	1	-4	-6.5	0	4	-1	1	1.45	-8.064	1.3107	-16.3295	-2.2445	-1.559	-4.3172	-3.1926	1.1984	-9.3221	-5.7091	-14.2776	-4.153	-8.9262	-8.37	-9.5674	-6.6513	-4.7329	-1.6416	-10.081	-13.7257	0.5128	0.2158	0.2857	0.4508	0.2629	0.223	0.3365	0.2237	0.5248	0.2146	0.3944	0.5021	0.2478	0.2079	0.3932	0.4819	0.24	0.2136	0.3946	6.3261	1.6379	3.1005	12	15	0.371563556432483	0	1
"16"	12	19	1	1	1.625	1	10	1	1	3.2	-2.3267	-0.7158	5.6152	0.5134	-5.7167	0.076	10.6573	-5.49	5.0628	1.6332	6.1206	3.0863	6.7228	8.6551	6.4431	-2.0703	-5.2062	4.1097	-4.0624	0.3304	0.333	0.333	0.333	0.333	0.333	0.333	0.333	0.333	0.333	0.333	0.333	0.333	0.333	0.333	0.333	0.333	0.333	0.333	0.333	6.327	1.6706	4.8843	12	16	1.16315080980568	1	0
"17"	12	33	1	1	1.625	1	5	1	1	1.486	-3.142	1.4811	1.1691	4.8761	3.4605	8.8927	0.8275	-0.9228	2.3242	3.2371	-1.5165	6.5169	7.331	-0.5712	4.6159	-8.031	-3.0337	1.8722	-7.4328	11.8098	0.333	0.333	0.333	0.333	0.333	0.333	0.333	0.333	0.333	0.333	0.333	0.333	0.333	0.333	0.333	0.333	0.333	0.333	0.333	6.327	1.6769	3.17	12	17	0.396087946295567	1	0
"18"	12	40	1	1	1.625	0	6	1	1	1.729	-2.378	-3.0316	4.8054	11.1797	1.0661	2.4729	-0.7952	-3.5457	2.8656	3.9136	5.5082	0.6812	5.377	6.4776	-4.7797	8.6608	2.3365	3.9044	-8.8377	-3.4141	0.316	0.5146	0.3184	0.21	0.3138	0.3391	0.4831	0.2067	0.3097	0.4806	0.2154	0.2754	0.2387	0.2888	0.4234	0.2494	0.4717	0.4327	0.2451	6.3327	1.5935	3.3302	12	18	0.547543206701154	1	0
"19"	12	10	1	-1	-1.625	0	5	1	0	1.507	-6.3186	5.3207	-2.2817	-0.5585	6.6309	-2.19	-4.0969	-8.293	-2.3407	-7.319	-9.5901	-2.8679	-0.7706	-2.0888	-4.9121	0.7159	-0.9495	-4.1726	3.2138	9.7353	0.3248	0.2114	0.5005	0.3958	0.2141	0.3821	0.2859	0.214	0.273	0.3383	0.4752	0.2521	0.4564	0.2301	0.5302	0.389	0.2903	0.2424	0.3276	6.3336	1.5316	3.0411	12	19	0.410120919644358	1	0
"20"	12	21	1	4	6.5	1	9	1	1	2.727	5.4209	1.1176	0.8107	0.9258	7.3083	15.7295	4.3053	8.9496	1.558	9.2235	5.5939	4.3947	2.6373	9.7305	11.4705	-2.071	11.752	17.0124	6.8867	5.7587	0.333	0.333	0.333	0.333	0.333	0.333	0.333	0.333	0.333	0.333	0.333	0.333	0.333	0.333	0.333	0.333	0.333	0.333	0.333	6.327	1.5353	4.2606	12	20	1.00320210386345	1	0
"21"	12	22	1	-4	-6.5	0	8	-1	1	2.759	-2.2013	2.3499	-5.5541	-4.118	-12.611	-8.5622	-6.9211	-11.0822	-6.4182	-1.1906	0.0485	-5.595	-6.6514	-14.1153	-0.5652	-14.9649	-15.0681	-5.4801	-6.9681	-4.7996	0.4511	0.3069	0.4842	0.2826	0.2525	0.312	0.4168	0.3148	0.3464	0.2894	0.3395	0.2443	0.2773	0.5113	0.2839	0.382	0.264	0.3102	0.2631	6.3323	1.5757	4.3432	12	21	1.01486829523515	0	1
"22"	12	13	1	2	3.25	0	6	1	1	1.919	0.7866	3.9453	6.9416	4.5417	12.8946	1.7607	14.6274	0.8119	7.5138	1.0364	0.7555	-3.5381	-0.3286	4.2234	7.9646	-2.9181	-4.2968	4.3086	-1.2501	4.971	0.3701	0.2722	0.4751	0.2358	0.3572	0.2371	0.3608	0.2897	0.4646	0.3507	0.2596	0.4664	0.3987	0.3338	0.3969	0.2561	0.2881	0.2282	0.2819	6.3231	1.729	3.6699	12	22	0.651804217025563	1	0
"23"	12	12	1	1	1.625	0	5	1	1	1.599	4.597	3.9714	-2.6462	4.9028	2.9556	-2.7669	-2.7574	-8.3198	-0.3648	3.4445	1.6496	-5.7418	6.561	-6.2927	4.5871	10.3882	0.5795	2.8912	8.2866	6.9199	0.2065	0.2679	0.4755	0.4261	0.2418	0.3473	0.3846	0.4501	0.489	0.2116	0.2502	0.3269	0.3745	0.3058	0.245	0.4026	0.2439	0.4318	0.251	6.3321	1.5357	3.15	12	23	0.469378433851817	1	0
"24"	12	52	1	-1	-1.625	0	11	1	0	3.574	-4.7947	2.7355	3.2589	5.2018	0.9275	-6.9642	-0.1227	-0.7628	-7.3294	-1.6495	-2.7977	-3.4921	-11.9045	3.7812	1.3804	6.2803	-8.4294	2.0773	-1.319	-8.6013	0.4832	0.3903	0.3093	0.3366	0.3955	0.2197	0.4526	0.2249	0.2697	0.3272	0.2968	0.4321	0.3626	0.2047	0.3003	0.209	0.3705	0.2207	0.5167	6.3224	1.6988	5.2919	12	24	1.27368541673724	1	0
"25"	12	6	1	2	3.25	1	8	1	1	2.608	3.6328	9.2285	0.6543	-2.8467	7.0722	0.5145	2.87	13.4731	-0.4193	6.9977	5.2115	1.8908	-3.5374	-8.5273	1.8105	1.2834	8.5035	4.7237	5.84	5.764	0.333	0.333	0.333	0.333	0.333	0.333	0.333	0.333	0.333	0.333	0.333	0.333	0.333	0.333	0.333	0.333	0.333	0.333	0.333	6.327	1.4627	4.0757	12	25	0.958583644064407	1	0
"26"	12	3	1	-1	-1.625	1	8	-1	1	2.432	-1.8642	-0.2163	2.2648	-1.0396	-4.6992	-8.8843	-11.3897	-2.7343	-0.0725	10.7657	0.6785	2.4419	-5.4187	-0.9904	-3.1511	4.4771	-3.8472	-8.8276	-1.3492	-0.3853	0.333	0.333	0.333	0.333	0.333	0.333	0.333	0.333	0.333	0.333	0.333	0.333	0.333	0.333	0.333	0.333	0.333	0.333	0.333	6.327	1.4583	3.8991	12	26	0.888713964103921	0	1
"27"	12	29	1	-4	-6.5	1	5	-1	1	1.347	-5.142	-8.5123	-8.2982	-11.4767	-10.8084	-2.6856	-4.6852	4.3615	-9.7872	-5.9816	-2.4147	-14.731	0.2265	-4.3598	-14.4209	-1.2961	-4.9683	-4.581	-11.7454	-10.6745	0.333	0.333	0.333	0.333	0.333	0.333	0.333	0.333	0.333	0.333	0.333	0.333	0.333	0.333	0.333	0.333	0.333	0.333	0.333	6.327	1.5299	2.8812	12	27	0.297879897428227	0	1
"28"	12	69	1	2	3.25	0	15	-1	0	4.773	2.8874	-5.9973	2.859	8.6703	10.431	4.4836	-1.467	1.6863	2.0544	1.9034	12.7514	5.5126	-2.2516	-0.9276	-2.7274	7.611	8.6783	-0.7045	0.6236	9.6668	0.4682	0.3047	0.3409	0.3055	0.4857	0.3963	0.2111	0.3312	0.2189	0.273	0.3528	0.4582	0.3838	0.2366	0.2775	0.3263	0.2232	0.5116	0.2175	6.3232	1.7236	6.5072	12	28	1.56297503802376	0	1
"29"	12	67	1	0	0	0	9	-1	1	3.091	3.2147	5.4144	-3.4341	-3.3142	-1.1562	-4.8197	3.6912	-0.5181	0.8701	-3.5318	-11.6369	7.2281	-7.2092	-5.2579	3.03	2.4586	-1.3535	7.7776	2.6694	4.4645	0.4962	0.2459	0.5123	0.3232	0.2608	0.4724	0.2833	0.2143	0.3476	0.2294	0.3369	0.2924	0.5041	0.3536	0.2333	0.2713	0.2246	0.3992	0.321	6.3217	1.721	4.8081	12	29	1.12849466314998	0	1
"30"	12	24	1	-1	-1.625	0	5	-1	1	1.535	-0.5842	-1.3788	0.109	-1.8141	3.8408	-5.2839	5.1502	-4.972	2.8173	-6.0773	6.762	-6.9501	-9.4571	-1.0054	-5.7502	3.356	1.2184	3.3039	-9.0578	-7.0984	0.3593	0.2494	0.3185	0.4734	0.3908	0.2506	0.2804	0.3147	0.2157	0.4466	0.2703	0.3583	0.2576	0.3845	0.2996	0.3989	0.2894	0.4498	0.3286	6.3363	1.7044	3.2354	12	30	0.42853038103916	0	1
"31"	12	55	1	2	3.25	0	7	1	1	2.294	0.1389	3.4682	12.115	-0.4721	-2.2594	5.1002	3.3789	0.3827	1.0278	6.1969	4.8854	15.3187	-0.5426	6.3681	-3.2723	5.7118	-5.8607	6.5411	4.7445	3.6472	0.2183	0.4632	0.3007	0.2152	0.4934	0.2101	0.413	0.4799	0.2254	0.492	0.2067	0.4413	0.3703	0.4274	0.2368	0.3383	0.2494	0.322	0.2191	6.3225	1.6721	3.9618	12	31	0.830297018707179	1	0
"32"	12	5	1	1	1.625	1	7	1	1	2.046	0.7192	6.9283	5.5362	-5.1776	-6.041	11.8885	-5.7396	0.1234	0.7298	2.1712	8.059	4.4812	4.3837	2.6823	-3.922	6.9483	3.7502	-2.5133	-3.3132	2.4526	0.333	0.333	0.333	0.333	0.333	0.333	0.333	0.333	0.333	0.333	0.333	0.333	0.333	0.333	0.333	0.333	0.333	0.333	0.333	6.327	1.6528	3.7136	12	32	0.715886667529435	1	0
"33"	12	14	1	4	6.5	0	5	1	1	1.177	7.551	9.0224	4.9151	10.5568	6.1644	10.5188	6.2575	10.9756	2.7542	8.0859	0.8386	-0.9685	2.4081	3.9242	0.5583	-1.002	8.0859	15.0748	6.1142	18.0851	0.209	0.3736	0.3231	0.2379	0.2021	0.309	0.483	0.3821	0.2657	0.3348	0.5026	0.3663	0.3988	0.2138	0.2393	0.4932	0.4377	0.2552	0.2997	6.327	1.4874	2.6777	12	33	0.16296882827814	1	0
"34"	12	38	1	-1	-1.625	0	6	-1	1	1.58	-3.0925	5.68	-7.807	-0.1764	-7.1729	1.4427	-6.2638	7.9797	-6.1631	-2.5192	-1.1522	-1.5615	3.9778	-3.3457	0.2168	-10.9941	6.9808	-1.4773	-0.7566	-4.9861	0.2394	0.2732	0.2003	0.4458	0.2067	0.4264	0.3997	0.2441	0.3575	0.2461	0.3029	0.2015	0.3061	0.5264	0.3332	0.2362	0.5211	0.4602	0.403	6.3297	1.5433	3.1307	12	34	0.457424847038875	0	1
"35"	12	11	1	0	0	0	8	1	1	2.676	4.3649	1.069	0.6383	8.4184	-1.5329	-5.8327	0.7776	-6.8369	5.6724	-0.3754	3.3672	-1.2512	1.928	-8.5475	3.9578	-7.1778	-3.9882	-4.8843	0.4958	8.7697	0.4664	0.2552	0.3874	0.4653	0.2358	0.4592	0.2407	0.282	0.3351	0.2096	0.3877	0.3603	0.204	0.251	0.2959	0.429	0.2686	0.3815	0.419	6.3337	1.6936	4.3772	12	35	0.984323142265982	1	0
"36"	12	65	1	-2	-3.25	0	6	1	0	2.024	-2.441	6.5788	1.7185	2.2019	5.6359	-9.6435	-0.8446	-4.1691	1.0348	-7.137	-0.6237	-3.5191	-7.6982	-1.6691	-9.3671	-8.5554	-2.5158	-9.274	-5.7238	-9.7987	0.4659	0.5312	0.3281	0.3835	0.2417	0.2048	0.5157	0.2674	0.475	0.2592	0.2326	0.299	0.3607	0.2521	0.2172	0.2736	0.2204	0.274	0.5193	6.3216	1.4542	3.4919	12	36	0.705075751425219	1	0
"37"	12	26	1	1	1.625	0	4	1	1	1.152	3.0605	4.6734	2.3966	-6.4564	-5.0622	15.6547	1.2512	-0.4692	-3.7418	-2.351	-0.1334	2.0867	3.5888	-0.6142	8.291	-0.9705	1.0942	-0.1316	4.2954	6.87	0.2401	0.3164	0.3941	0.2882	0.4908	0.2661	0.377	0.2926	0.2155	0.2879	0.3449	0.2541	0.3156	0.2282	0.4584	0.2065	0.3818	0.4589	0.5018	6.3187	1.6472	2.8028	12	37	0.141499562273699	1	0
"38"	12	68	1	1	1.625	0	5	1	1	1.523	2.6541	0.3159	4.4373	5.952	-1.0783	1.1863	10.2512	6.6688	-0.4952	0.7648	8.6564	1.1897	-8.5776	1.5086	-10.1436	4.5484	2.5325	-3.4889	5.2529	1.1311	0.3395	0.3855	0.2362	0.488	0.3047	0.27	0.3487	0.3822	0.2635	0.2313	0.4701	0.233	0.2835	0.3127	0.2384	0.3907	0.3178	0.4659	0.3749	6.3365	1.5247	3.0566	12	38	0.420682073913025	1	0
"39"	12	63	1	4	6.5	1	7	1	1	2.064	2.7514	16.6751	9.998	5.0433	5.2415	-2.2999	10.4602	7.0691	5.3527	1.4758	9.9983	2.4731	-1.5474	5.7839	5.0896	5.0587	5.2306	7.6536	15.0443	12.8194	0.333	0.333	0.333	0.333	0.333	0.333	0.333	0.333	0.333	0.333	0.333	0.333	0.333	0.333	0.333	0.333	0.333	0.333	0.333	6.327	1.6188	3.698	12	39	0.724645847619316	1	0
"40"	12	53	1	0	0	0	9	-1	1	2.275	1.4531	-6.8166	1.6969	3.0002	3.8198	-7.8983	-3.4887	-0.9278	2.1227	0.1362	5.9576	-0.5039	-4.9437	0.5114	-7.7809	0.846	3.1389	-0.2026	-2.7236	13.8246	0.2558	0.2904	0.2553	0.3413	0.2068	0.2906	0.2599	0.2853	0.4206	0.5258	0.3555	0.2896	0.3417	0.5027	0.4306	0.2105	0.2847	0.2404	0.5309	6.3188	1.634	3.9087	12	40	0.821980052402914	0	1
"41"	12	43	1	-4	-6.5	1	5	-1	1	1.479	-4.6368	-1.1903	-10.0845	-8.0467	-8.1971	1.3346	-12.9552	-2.2031	-7.4815	0.5828	-4.965	-8.2329	-16.1476	1.1702	-8.0687	-6.1991	-13.549	-10.4514	-9.9067	-2.5919	0.333	0.333	0.333	0.333	0.333	0.333	0.333	0.333	0.333	0.333	0.333	0.333	0.333	0.333	0.333	0.333	0.333	0.333	0.333	6.327	1.4832	2.9632	12	41	0.391366183728663	0	1
"42"	12	2	1	-2	-3.25	1	7	-1	1	2.16	-1.9566	-9.353	-4.4898	-2.3839	-3.4422	0.6018	8.9736	4.5581	-4.7582	-10.6617	-2.7773	-10.9589	1.2735	-5.5783	-10.3503	-3.7594	-0.6153	-2.9724	-6.1253	-0.1011	0.333	0.333	0.333	0.333	0.333	0.333	0.333	0.333	0.333	0.333	0.333	0.333	0.333	0.333	0.333	0.333	0.333	0.333	0.333	6.327	1.4362	3.5938	12	42	0.770108221696074	0	1
"43"	12	20	1	2	3.25	1	5	1	1	1.585	0.8862	12.2433	10.5888	9.3748	2.2042	-1.6111	-3.4676	2.4646	-1.5649	7.4849	5.4472	-2.487	-5.3191	4.4746	-1.9515	9.4081	1.7806	6.1184	6.606	4.1155	0.333	0.333	0.333	0.333	0.333	0.333	0.333	0.333	0.333	0.333	0.333	0.333	0.333	0.333	0.333	0.333	0.333	0.333	0.333	6.327	1.72	3.3027	12	43	0.460584407329244	1	0
"44"	12	56	1	4	6.5	0	4	1	1	1.302	6.8247	5.2324	5.7247	3.708	14.6595	5.9538	16.1117	-4.0402	1.1627	10.4185	9.9076	8.7913	2.0065	3.9971	15.7375	4.2587	8.2991	2.0958	5.6575	4.6385	0.3394	0.4992	0.3083	0.2709	0.47	0.2704	0.3313	0.5062	0.2482	0.3223	0.2609	0.2047	0.3048	0.439	0.2523	0.2131	0.5296	0.314	0.2358	6.3206	1.5787	2.8865	12	44	0.263901543786378	1	0
"45"	12	23	1	-2	-3.25	0	4	-1	1	1.206	-0.4876	-6.2405	-9.1072	1.9226	-4.6035	-7.9538	-4.7533	-1.5729	2.2542	-12.1948	4.0362	-4.8327	1.0507	0.3338	-13.1132	2.1326	1.281	-0.7325	-2.6757	-8.5123	0.4148	0.3337	0.3667	0.2163	0.5214	0.3177	0.2605	0.3319	0.2363	0.4074	0.2099	0.3383	0.308	0.386	0.4147	0.2158	0.4163	0.3381	0.2884	6.3222	1.4051	2.6066	12	45	0.187309098304994	0	1
"46"	12	51	1	-2	-3.25	0	3	-1	1	0.924	-3.5985	-5.5831	-11.6516	-3.4761	4.112	0.8338	-13.7049	-0.2439	1.9894	-1.0442	1.1357	-1.9422	-4.152	-1.2768	-4.2358	-9.1718	-1.355	3.4795	-5.0191	-10.9828	0.2593	0.3121	0.4098	0.2395	0.2804	0.4883	0.2292	0.3863	0.4443	0.3228	0.2976	0.2295	0.3868	0.2256	0.5305	0.3408	0.2486	0.3046	0.3926	6.3287	1.4943	2.4409	12	46	-0.0790432073404529	0	1
"47"	12	8	1	-4	-6.5	0	5	-1	1	1.371	-9.3346	-7.8698	-3.3796	-11.4721	-7.7121	-10.6882	-9.131	2.1775	-10.3656	3.2634	-11.7107	-9.1185	-4.4132	-6.9854	-4.0008	2.1012	0.3366	-11.7251	-11.8777	-7.1557	0.2917	0.3247	0.2309	0.4913	0.4528	0.3264	0.2546	0.3284	0.5167	0.227	0.4	0.2075	0.2463	0.3023	0.375	0.3212	0.3874	0.2798	0.3623	6.3263	1.4657	2.8546	12	47	0.315540400580177	0	1
"48"	12	25	1	0	0	0	5	-1	1	1.514	-2.1145	-3.82	-2.2353	1.8998	5.6313	-3.6804	2.7856	7.0232	4.6487	3.45	-8.1486	-8.6423	6.2837	4.9839	-0.4507	-1.2434	-7.3845	4.3704	-3.4791	-1.5929	0.487	0.3009	0.274	0.3721	0.2655	0.3865	0.5174	0.2797	0.3558	0.2562	0.4526	0.2107	0.3423	0.2889	0.2002	0.2807	0.4844	0.3073	0.2732	6.3354	1.6233	3.1483	12	48	0.414755155015257	0	1
"49"	12	36	1	-4	-6.5	0	9	-1	1	2.843	-5.4112	-6.4601	2.6659	-10.7082	-2.6691	4.6869	-12.0745	-2.9978	-8.5259	-5.973	-2.6008	-17.1349	-6.3998	-3.4436	-9.33	-10.5921	-8.0819	-9.0721	-6.5163	-7.6632	0.3386	0.2215	0.3138	0.3816	0.4236	0.2793	0.4049	0.301	0.2141	0.3435	0.2416	0.4754	0.3288	0.4381	0.3683	0.2155	0.3714	0.4399	0.2161	6.3171	1.5218	4.3772	12	49	1.04485983266886	0	1
"50"	12	70	1	4	6.5	0	5	1	1	1.668	4.5742	11.4559	6.7916	1.3637	13.4213	9.2944	8.8179	8.3445	5.2779	15.4884	1.9979	7.9277	13.3437	4.285	5.0185	7.011	0.2697	4.2481	-5.5957	5.7419	0.4946	0.3298	0.2285	0.4639	0.2951	0.3602	0.2477	0.4792	0.5148	0.2635	0.3626	0.2769	0.3149	0.2086	0.4424	0.204	0.359	0.2124	0.2759	6.3341	1.628	3.3025	12	50	0.511625303936555	1	0
"51"	12	59	1	-1	-1.625	1	4	1	0	1.12	2.0927	6.7798	-1.4316	0.1218	2.6181	0.453	-4.1218	6.7824	-6.9095	-4.9336	-3.2014	-8.5928	1.4322	-13.0188	-1.0836	3.9902	-5.2024	-3.2937	-3.7932	-0.9257	0.333	0.333	0.333	0.333	0.333	0.333	0.333	0.333	0.333	0.333	0.333	0.333	0.333	0.333	0.333	0.333	0.333	0.333	0.333	6.327	1.536	2.6708	12	51	0.113328685307003	1	0
"52"	12	46	1	0	0	1	11	1	0	3.639	-3.7715	-0.1079	1.4941	-3.973	0.7533	0.7078	-8.0841	10.1241	0.8987	-4.9988	1.3678	0.1564	0.5797	9.9637	-4.6379	0.4025	7.5756	-5.356	-4.1679	1.9563	0.333	0.333	0.333	0.333	0.333	0.333	0.333	0.333	0.333	0.333	0.333	0.333	0.333	0.333	0.333	0.333	0.333	0.333	0.333	6.327	1.4247	5.0731	12	52	1.29170891863002	1	0
"53"	12	39	1	0	0	0	12	-1	1	3.643	3.682	2.4637	1.8416	-0.8041	-3.9915	2.2187	-2.1036	-10.031	-7.8554	6.2117	1.2392	-5.5849	5.5178	-1.2494	2.1855	-5.5201	-1.6844	5.8482	9.311	-3.2301	0.3348	0.4794	0.3275	0.2277	0.2699	0.4997	0.2598	0.3105	0.4343	0.2801	0.211	0.5078	0.2883	0.2029	0.2406	0.352	0.5055	0.2412	0.3513	6.3245	1.5873	5.2439	12	53	1.29280751802643	0	1
"54"	12	27	1	2	3.25	0	16	1	1	5.267	2.4158	1.3717	10.3026	3.3089	1.7788	6.8394	1.6716	11.3255	5.4443	-6.3602	6.9082	3.0769	1.0942	8.9359	3.6619	-2.4319	-3.4091	-4.239	4.5168	10.7393	0.2568	0.5173	0.2458	0.2942	0.5189	0.4098	0.2235	0.3494	0.3967	0.3589	0.3058	0.3356	0.2953	0.2173	0.3356	0.4853	0.338	0.245	0.2039	6.3331	1.552	6.8178	12	54	1.66146094050125	1	0
"55"	12	37	1	-2	-3.25	0	6	-1	1	2.196	0.804	5.9939	-2.9305	-7.3516	-1.8109	-8.5459	-1.7409	-5.2596	-4.6871	-11.3667	-8.6344	-5.0832	-8.3403	-0.0203	-2.3834	0.3865	3.269	-1.5771	-10.9953	3.5579	0.2443	0.3068	0.4296	0.4969	0.2559	0.4954	0.274	0.3105	0.5068	0.2374	0.2905	0.2261	0.2925	0.4089	0.255	0.5036	0.3369	0.2469	0.219	6.337	1.6928	3.8973	12	55	0.786637523647284	0	1
"56"	12	50	1	-4	-6.5	0	4	-1	1	1.413	-5.1765	-5.7588	-13.3424	-3.122	-0.6142	-12.3359	-5.6663	-5.7224	-3.8277	-12.8728	-1.4399	-13.8907	-9.9408	1.9719	-4.5764	0.2962	-10.1572	-13.8723	-5.9587	-2.994	0.3735	0.4112	0.2562	0.5201	0.3762	0.3077	0.411	0.3024	0.2307	0.3274	0.3607	0.2009	0.2299	0.2625	0.207	0.5024	0.4236	0.231	0.3899	6.3244	1.4165	2.8308	12	56	0.34571510370239	0	1
"57"	12	66	1	-1	-1.625	0	10	-1	1	3.111	-1.0468	6.1487	-5.8038	0.4313	8.98	2.6269	-0.6151	2.7194	-9.8548	2.0677	-3.494	-0.4688	-7.7676	-6.9001	1.4006	-2.4449	-9.5657	-3.452	-5.8683	-1.3528	0.2464	0.4909	0.2374	0.3151	0.2068	0.2421	0.4944	0.2683	0.3986	0.2889	0.2219	0.4716	0.3016	0.2329	0.5232	0.2199	0.382	0.4566	0.332	6.3308	1.6991	4.8113	12	57	1.1349442179155	0	1
"58"	12	35	1	4	6.5	1	6	1	1	1.761	9.5915	4.8345	4.5107	0.5931	7.7734	3.0075	6.5226	2.4583	4.8566	7.4138	-0.9865	-3.1293	6.1774	6.6557	12.708	16.1585	8.5421	14.7021	11.4494	6.8406	0.333	0.333	0.333	0.333	0.333	0.333	0.333	0.333	0.333	0.333	0.333	0.333	0.333	0.333	0.333	0.333	0.333	0.333	0.333	6.327	1.5253	3.295	12	58	0.565881829514069	1	0
"59"	12	30	1	-2	-3.25	1	5	-1	1	1.333	-2.6175	-5.2156	0.2448	-4.5348	-1.4101	6.3724	-1.869	-3.9539	-7.2124	-5.259	6.1688	-5.3159	-6.0302	0.7405	-13.4329	-9.176	-2.1909	-8.4757	-3.0819	2.9484	0.333	0.333	0.333	0.333	0.333	0.333	0.333	0.333	0.333	0.333	0.333	0.333	0.333	0.333	0.333	0.333	0.333	0.333	0.333	6.327	1.6692	3.0169	12	59	0.287432041196572	0	1
"60"	12	58	1	-2	-3.25	1	9	-1	1	2.671	-4.6394	0.497	-5.7965	-1.5617	1.062	-6.172	-4.0635	-11.9829	-2.1168	5.1082	0.7562	1.5566	-9.8787	-0.4565	-10.8178	0.46	-4.5061	-9.2531	4.0258	-8.2504	0.333	0.333	0.333	0.333	0.333	0.333	0.333	0.333	0.333	0.333	0.333	0.333	0.333	0.333	0.333	0.333	0.333	0.333	0.333	6.327	1.6705	4.3548	12	60	0.982452934127824	0	1
"61"	12	62	1	2	3.25	1	5	1	1	1.386	5.2186	7.3428	5.2853	-3.3009	-0.4404	3.039	6.9563	5.8723	4.4529	6.6658	-3.8519	2.1267	14.4464	2.4023	0.4224	-3.9293	-0.056	8.5635	-4.338	9.804	0.333	0.333	0.333	0.333	0.333	0.333	0.333	0.333	0.333	0.333	0.333	0.333	0.333	0.333	0.333	0.333	0.333	0.333	0.333	6.327	1.6933	3.0868	12	61	0.326421900767711	1	0
"62"	12	34	1	2	3.25	1	5	1	1	1.419	3.3683	10.3885	7.8207	-2.6305	4.6636	8.8086	-7.507	9.3111	10.2921	4.5672	-3.3136	4.888	2.0956	-1.6087	-0.0388	2.7773	1.5836	3.1944	-1.1475	8.7212	0.333	0.333	0.333	0.333	0.333	0.333	0.333	0.333	0.333	0.333	0.333	0.333	0.333	0.333	0.333	0.333	0.333	0.333	0.333	6.327	1.7187	3.1529	12	62	0.349952398177906	1	0
"63"	12	48	1	2	3.25	1	5	1	1	1.549	6.5937	5.1797	3.0088	11.7394	1.7673	-2.1054	-4.9307	5.4623	-0.8963	-0.9758	8.9696	0.9803	6.4455	13.0413	-2.3439	2.6751	3.3962	-2.2321	8.3662	2.5004	0.333	0.333	0.333	0.333	0.333	0.333	0.333	0.333	0.333	0.333	0.333	0.333	0.333	0.333	0.333	0.333	0.333	0.333	0.333	6.327	1.6957	3.2499	12	63	0.437609561434732	1	0
"64"	12	61	1	1	1.625	1	12	-1	0	3.956	4.195	-1.427	-9.3467	6.5354	-0.5805	6.7509	2.2386	7.6493	-0.8596	-3.6574	1.7373	-6.5761	0.8997	1.9542	7.617	2.9737	-2.9898	0.9342	8.2861	8.1039	0.333	0.333	0.333	0.333	0.333	0.333	0.333	0.333	0.333	0.333	0.333	0.333	0.333	0.333	0.333	0.333	0.333	0.333	0.333	6.327	1.5335	5.4897	12	64	1.37523341376047	0	1
"65"	12	17	1	-1	-1.625	1	8	1	0	2.597	-0.3619	-8.4916	0.7789	0.9893	4.3305	-2.2903	-3.569	-3.2892	-6.0403	-0.7429	-12.7452	0.4349	6.0501	1.6456	0.3202	3.4262	-5.5707	1.8048	1.834	-10.1537	0.333	0.333	0.333	0.333	0.333	0.333	0.333	0.333	0.333	0.333	0.333	0.333	0.333	0.333	0.333	0.333	0.333	0.333	0.333	6.327	1.5774	4.1812	12	65	0.954356932680611	1	0
"66"	12	49	1	4	6.5	1	6	1	1	1.765	7.3839	9.943	0.3368	10.6282	14.104	4.797	14.8988	0.4516	0.5632	10.7861	3.0096	9.2682	6.6632	6.7944	13.9883	1.8063	4.5055	-0.0448	1.3004	9.3171	0.333	0.333	0.333	0.333	0.333	0.333	0.333	0.333	0.333	0.333	0.333	0.333	0.333	0.333	0.333	0.333	0.333	0.333	0.333	6.327	1.6631	3.4328	12	66	0.56815069038526	1	0
"67"	12	7	1	4	6.5	1	6	1	1	1.934	9.2498	4.6196	1.9657	5.4063	3.8416	4.6	16.0789	0.8719	-1.8961	8.1009	6.4083	1.7542	5.7902	9.4563	16.1323	8.8201	0.2336	11.9785	10.8571	7.4353	0.333	0.333	0.333	0.333	0.333	0.333	0.333	0.333	0.333	0.333	0.333	0.333	0.333	0.333	0.333	0.333	0.333	0.333	0.333	6.327	1.6518	3.5847	12	67	0.659590397031103	1	0
"68"	12	60	1	0	0	1	9	1	1	2.704	-3.7898	6.7846	1.3119	-1.5296	0.3725	-3.7915	-8.5133	1.7195	12.0009	2.6562	-4.2081	1.3837	3.1427	-1.6389	3.8044	6.2868	-3.1764	-2.8706	-5.6126	-5.5186	0.333	0.333	0.333	0.333	0.333	0.333	0.333	0.333	0.333	0.333	0.333	0.333	0.333	0.333	0.333	0.333	0.333	0.333	0.333	6.327	1.7326	4.4378	12	68	0.994732158180718	1	0
"69"	12	47	1	1	1.625	1	5	1	1	1.349	3.5344	2.7426	-0.0513	0.8982	7.453	4.599	0.1403	5.8522	13.2396	6.3375	-4.3182	2.3778	-2.1882	-2.9441	-1.7368	3.824	-0.0305	-9.739	-1.6639	4.336	0.333	0.333	0.333	0.333	0.333	0.333	0.333	0.333	0.333	0.333	0.333	0.333	0.333	0.333	0.333	0.333	0.333	0.333	0.333	6.327	1.4661	2.8162	12	69	0.299363577225619	1	0
"70"	12	44	1	-2	-3.25	1	6	-1	1	1.696	-4.594	-1.0972	2.0001	-2.8641	-5.5843	-9.1697	5.7975	-8.0974	-0.6308	1.0967	1.9731	-6.5687	-3.0043	-11.3784	-4.7769	-1.7825	-13.7632	-3.4416	1.5243	-0.3848	0.333	0.333	0.333	0.333	0.333	0.333	0.333	0.333	0.333	0.333	0.333	0.333	0.333	0.333	0.333	0.333	0.333	0.333	0.333	6.327	1.4174	3.1299	12	70	0.528272537369711	0	1
"71"	12	46	2	0	0	1	7	1	1	2.011	1.3817	2.3551	5.4464	1.3714	-12.519	3.4981	1.523	-3.0948	0.7079	-5.6893	11.0494	2.3587	0.7319	0.3585	0.7871	-3.9863	-5.3427	-2.719	-2.356	4.2574	0.333	0.333	0.333	0.333	0.333	0.333	0.333	0.333	0.333	0.333	0.333	0.333	0.333	0.333	0.333	0.333	0.333	0.333	0.333	6.327	1.4892	3.5112	12	71	0.698632110790515	1	0
"72"	12	1	2	-4	-6.5	1	6	-1	1	1.819	-2.119	-5.8939	-11.5815	-8.6942	-2.0823	-10.6611	-8.8716	-7.4766	-3.2046	-6.0173	0.1995	-10.9666	-9.4714	-5.8324	-7.3925	2.9236	-5.1629	-15.8979	-12.2591	1.699	0.333	0.333	0.333	0.333	0.333	0.333	0.333	0.333	0.333	0.333	0.333	0.333	0.333	0.333	0.333	0.333	0.333	0.333	0.333	6.327	1.44	3.27	12	72	0.598286899535985	0	1
"73"	12	69	2	2	3.25	0	4	1	1	1.391	4.5661	13.6468	2.7853	5.888	11.2238	-0.3206	-8.5195	-4.8146	5.667	4.7024	-0.5708	5.0009	7.2535	-1.5197	3.8943	1.7965	4.3463	1.1044	6.2506	1.2138	0.2703	0.3478	0.4547	0.3636	0.4765	0.2195	0.2702	0.3257	0.2563	0.5084	0.3078	0.5193	0.3103	0.2535	0.2275	0.385	0.2782	0.2371	0.3204	6.3323	1.5498	2.9583	12	73	0.330022912941306	1	0
"74"	12	48	2	2	3.25	1	6	1	1	1.984	3.9089	-5.4526	7.5276	2.5414	0.8766	0.4967	3.7644	0.402	8.7589	9.5542	0.5293	7.9752	-0.4052	4.2526	13.1481	2.7395	10.2866	-4.3729	-1.4515	1.6477	0.333	0.333	0.333	0.333	0.333	0.333	0.333	0.333	0.333	0.333	0.333	0.333	0.333	0.333	0.333	0.333	0.333	0.333	0.333	6.327	1.4753	3.4678	12	74	0.685115008862681	1	0
"75"	12	47	2	1	1.625	1	8	1	1	2.604	5.7946	-0.5898	0.0809	2.5239	5.7414	-0.6504	1.9602	-1.9524	0.011	5.6995	5.3565	11.4739	-4.2147	-4.131	-3.0529	9.5547	5.5932	-2.0186	2.9537	-8.0316	0.333	0.333	0.333	0.333	0.333	0.333	0.333	0.333	0.333	0.333	0.333	0.333	0.333	0.333	0.333	0.333	0.333	0.333	0.333	6.327	1.6478	4.2551	12	75	0.957048724346323	1	0
"76"	12	33	2	1	1.625	1	7	-1	0	2.165	1.2599	-1.0101	1.0956	-0.468	2.2572	13.2795	-6.0451	-0.839	9.6044	3.0316	3.1817	4.16	-4.1101	-4.9133	-3.3821	9.1478	1.6952	-1.2094	5.5308	1.2659	0.333	0.333	0.333	0.333	0.333	0.333	0.333	0.333	0.333	0.333	0.333	0.333	0.333	0.333	0.333	0.333	0.333	0.333	0.333	6.327	1.6857	3.8488	12	76	0.772420361454453	0	1
"77"	12	35	2	4	6.5	1	8	1	1	2.369	5.593	-3.6629	7.9227	1.1854	5.6799	6.372	15.6823	3.0058	9.2494	3.4213	7.1201	-0.7702	6.9074	1.6697	13.4603	3.1532	7.7281	14.7261	8.5104	11.3086	0.333	0.333	0.333	0.333	0.333	0.333	0.333	0.333	0.333	0.333	0.333	0.333	0.333	0.333	0.333	0.333	0.333	0.333	0.333	6.327	1.5972	3.9698	12	77	0.862467925176648	1	0
"78"	12	55	2	2	3.25	0	8	1	1	2.361	4.0916	7.0851	0.6648	6.0513	5.2335	12.2467	-2.2942	6.902	6.5139	1.9611	-5.4683	9.3631	-6.1603	3.8123	3.0347	0.2848	1.4508	3.4546	9.5658	-4.1568	0.5242	0.2662	0.4233	0.2782	0.2234	0.2581	0.3834	0.2051	0.2854	0.3213	0.4166	0.3056	0.5047	0.3483	0.4842	0.2011	0.2842	0.3687	0.2485	6.3305	1.4961	3.8613	12	78	0.859085258103376	1	0
"79"	12	10	2	-1	-1.625	0	8	1	0	2.359	-4.8839	4.8027	-3.9759	-3.6782	5.9571	-0.2271	-1.0339	0.9791	0.149	-10.4985	-2.9059	2.1867	-11.5222	-4.4684	-3.9054	-4.9839	-3.8617	3.9265	7.6598	-1.2735	0.3141	0.2305	0.3201	0.2584	0.4257	0.2011	0.3265	0.5324	0.2751	0.3577	0.406	0.3467	0.2874	0.4744	0.2362	0.2666	0.4241	0.2009	0.4411	6.3249	1.4275	3.7928	12	79	0.858237800425538	1	0
"80"	12	45	2	-1	-1.625	1	6	-1	1	1.827	-5.6177	-5.1665	-1.2897	6.4917	1.5818	-1.7729	-14.5567	-5.5172	1.0054	-3.524	-0.0241	-0.5008	0.3337	3.3468	4.2945	-4.934	5.2935	-7.1025	-5.1376	1.13	0.333	0.333	0.333	0.333	0.333	0.333	0.333	0.333	0.333	0.333	0.333	0.333	0.333	0.333	0.333	0.333	0.333	0.333	0.333	6.327	1.68	3.511	12	80	0.60267527739587	0	1
"81"	12	62	2	2	3.25	1	7	1	1	2.013	6.0313	12.7374	5.5031	8.0574	4.6816	4.1789	-1.7542	4.8179	-7.5482	-0.2977	-0.5081	-0.8148	6.2446	-0.8413	-0.2212	0.6202	12.8317	4.7081	6.1463	0.5994	0.333	0.333	0.333	0.333	0.333	0.333	0.333	0.333	0.333	0.333	0.333	0.333	0.333	0.333	0.333	0.333	0.333	0.333	0.333	6.327	1.4924	3.5136	12	81	0.699626146657654	1	0
"82"	12	67	2	0	0	0	7	-1	1	2.461	4.8853	5.81	-0.5721	-1.233	3.3215	-9.7005	0.5314	-4.7958	-0.7494	-0.2507	-0.6736	-1.2188	-6.0769	-7.7565	2.73	0.1535	12.5235	1.4953	4.1332	-0.7111	0.3612	0.4059	0.4624	0.3848	0.3105	0.2609	0.3569	0.41	0.3188	0.224	0.2633	0.4108	0.2772	0.3865	0.2253	0.4337	0.2797	0.3492	0.2096	6.3307	1.5852	4.0613	12	82	0.900567771408919	0	1
"83"	12	30	2	-2	-3.25	1	5	-1	1	1.422	0.3661	-2.2524	-6.4544	-4.6731	-0.8954	-1.909	-10.2657	-3.8523	-4.0523	-1.6185	-16.366	1.5479	-1.4041	-9.2537	5.094	-4.0266	-8.538	-0.466	-0.839	4.0427	0.333	0.333	0.333	0.333	0.333	0.333	0.333	0.333	0.333	0.333	0.333	0.333	0.333	0.333	0.333	0.333	0.333	0.333	0.333	6.327	1.5593	2.9892	12	83	0.352064331381049	0	1
"84"	12	13	2	2	3.25	0	5	-1	0	1.202	-1.7242	-1.3217	6.2998	-9.7423	9.1908	7.6899	2.3207	0.2502	4.4919	5.3533	0.3449	0.4175	6.1296	-3.2623	1.5468	4.6811	12.133	8.3849	6.1953	3.9412	0.2651	0.2124	0.2565	0.4394	0.279	0.3143	0.4006	0.2727	0.4856	0.2013	0.4925	0.3686	0.3217	0.361	0.331	0.2737	0.3801	0.4489	0.2237	6.3282	1.5629	2.7692	12	84	0.183986836113016	0	1
"85"	12	68	2	1	1.625	0	8	-1	0	2.179	0.8695	-1.8203	-1.8921	-3.5941	1.9343	4.1974	-0.9175	13.6508	-3.2194	4.9377	10.883	0.9098	3.089	0.6729	-1.5062	1.1144	-4.0753	4.629	-5.3768	7.0939	0.3856	0.2017	0.2498	0.3468	0.3816	0.2395	0.3094	0.2135	0.3283	0.2608	0.518	0.3412	0.4792	0.2631	0.4807	0.391	0.2303	0.4978	0.2128	6.3313	1.6178	3.8137	12	85	0.778866055962483	0	1
"86"	12	4	2	0	0	1	11	-1	1	3.351	-2.7903	2.9532	2.9279	0.0911	0.0629	-0.2684	-4.5137	-7.8351	0.7591	-7.9335	-10.4415	9.7395	-1.1677	3.5819	3.5791	7.434	-1.1451	2.2692	4.116	0.113	0.333	0.333	0.333	0.333	0.333	0.333	0.333	0.333	0.333	0.333	0.333	0.333	0.333	0.333	0.333	0.333	0.333	0.333	0.333	6.327	1.601	4.9684	12	86	1.20925880875517	0	1
"87"	12	57	2	-4	-6.5	1	13	1	0	4.08	-9.7347	-1.7562	-11.1514	-13.0593	4.9555	2.9127	-3.7646	-7.9345	-1.2911	-8.572	-9.4859	-11.7489	-10.5955	-0.4958	-8.7251	-7.1905	-8.2631	-9.9371	-9.2029	-2.9787	0.333	0.333	0.333	0.333	0.333	0.333	0.333	0.333	0.333	0.333	0.333	0.333	0.333	0.333	0.333	0.333	0.333	0.333	0.333	6.327	1.64	5.7307	12	87	1.40609698841607	1	0
"88"	12	43	2	-4	-6.5	1	4	-1	1	1.232	-2.3785	-11.8671	-10.962	-12.2524	1.2809	-0.562	-14.5501	-3.3607	-5.5277	-0.2854	-11.6658	-11.8338	-4.6606	-7.4424	-3.3007	-4.2522	-14.7745	-6.5601	-0.7522	-5.8908	0.333	0.333	0.333	0.333	0.333	0.333	0.333	0.333	0.333	0.333	0.333	0.333	0.333	0.333	0.333	0.333	0.333	0.333	0.333	6.327	1.5571	2.7996	12	88	0.208638865111328	0	1
"89"	12	42	2	4	6.5	0	7	1	1	2.148	3.5418	-1.6787	7.4275	10.8661	7.8205	10.8368	6.3492	9.4913	3.0176	14.5091	4.1138	10.7593	3.7084	11.3613	-5.7242	-0.1113	9.6039	7.7673	7.8608	8.558	0.4606	0.3572	0.2417	0.3902	0.2459	0.3847	0.2094	0.3032	0.2097	0.5177	0.3089	0.3443	0.2575	0.4096	0.3003	0.274	0.4346	0.2476	0.432	6.329	1.5998	3.7491	12	89	0.764537176646618	1	0
"90"	12	52	2	-1	-1.625	0	10	1	0	3.069	0.529	5.6503	-6.6361	4.3051	-5.1677	5.3102	0.0746	-3.4951	-0.4376	-3.5798	-6.9025	-3.1625	-3.2883	-4.9755	-11.1793	-6.6967	8.3547	1.0408	-0.5118	-2.9546	0.308	0.4406	0.2089	0.5178	0.3536	0.2798	0.3129	0.2641	0.239	0.2814	0.3103	0.4194	0.4669	0.3853	0.2035	0.2406	0.2678	0.3093	0.5256	6.3351	1.5212	4.5865	12	90	1.1213517756376	1	0
"91"	12	18	2	0	0	1	5	1	0	1.434	1.2162	5.2369	-2.7306	7.2575	-7.562	2.2868	1.6831	-9.6108	-8.7302	-0.5442	-0.3643	2.531	2.2488	-0.756	-2.4256	4.8702	-3.1963	-2.2404	10.311	-1.2786	0.333	0.333	0.333	0.333	0.333	0.333	0.333	0.333	0.333	0.333	0.333	0.333	0.333	0.333	0.333	0.333	0.333	0.333	0.333	6.327	1.4807	2.9176	12	91	0.360467742177429	1	0
"92"	12	51	2	-2	-3.25	0	7	-1	1	2.399	-6.5165	-9.2377	2.2833	-6.6988	-9.2717	0.7412	-0.1685	-10.4437	2.0807	1.6528	-0.0911	2.5445	-0.1972	-3.0899	-2.7943	-8.9117	-8.2523	-4.5436	4.2369	-9.4227	0.3724	0.4387	0.2361	0.2022	0.2468	0.4132	0.5155	0.41	0.2033	0.3313	0.2152	0.3799	0.5233	0.2347	0.2093	0.3914	0.2313	0.3319	0.4477	6.3341	1.7295	4.1329	12	92	0.875051983857558	0	1
"93"	12	66	2	-1	-1.625	0	11	-1	1	3.544	-2.4062	2.3698	-5.908	-3.241	2.8956	0.2689	-1.8619	-0.3715	0.0018	-8.2975	-7.7041	-2.3533	-12.4315	0.2473	6.6511	-0.4489	-5.6059	-1.7916	-1.5484	8.9764	0.3398	0.2654	0.2111	0.3756	0.2396	0.3148	0.3865	0.3571	0.386	0.4218	0.4861	0.328	0.2035	0.5133	0.3233	0.2705	0.2285	0.4629	0.2165	6.3302	1.5748	5.1277	12	93	1.26525603274283	0	1
"94"	12	26	2	1	1.625	0	8	1	1	2.537	-1.083	1.5676	-1.2841	3.1286	-1.4578	2.2781	1.6006	6.2963	5.191	3.245	9.3972	-0.8149	10.9146	2.9134	5.3089	2.89	-4.5281	-1.193	-1.6129	-11.7137	0.3783	0.2303	0.4204	0.2182	0.4597	0.3211	0.4584	0.2206	0.325	0.4638	0.272	0.2463	0.3475	0.2852	0.2001	0.4651	0.4169	0.3109	0.281	6.321	1.5271	4.0707	12	94	0.930982280617145	1	0
"95"	12	22	2	-4	-6.5	0	11	1	0	3.338	-1.5667	-15.2412	-7.89	-11.9251	-6.527	2.9329	-4.7772	-8.66	-4.1315	-12.4865	-7.7149	-6.0113	-6.9322	-1.7192	-9.4837	-8.2769	0.0937	0.8946	-8.7473	-13.319	0.3426	0.2832	0.4317	0.4591	0.2316	0.2055	0.2467	0.4522	0.2947	0.2401	0.3917	0.2003	0.4584	0.5162	0.2869	0.3949	0.2829	0.3693	0.2306	6.3186	1.6868	5.039	12	95	1.20537182523964	1	0
"96"	12	29	2	-4	-6.5	1	8	-1	1	2.543	-6.997	-5.5406	-11.3417	0.7659	-6.2777	-12.1125	3.3419	-11.5165	-5.07	6.7987	-9.8873	-5.3803	-6.6921	-9.5779	-11.5473	-5.3455	-7.358	-8.3883	-10.3144	-6.8525	0.333	0.333	0.333	0.333	0.333	0.333	0.333	0.333	0.333	0.333	0.333	0.333	0.333	0.333	0.333	0.333	0.333	0.333	0.333	6.327	1.6383	4.1936	12	96	0.933344486439983	0	1
"97"	12	9	2	-2	-3.25	0	11	1	0	3.769	-2.3418	-2.7538	7.3972	2.5655	-6.0315	-1.8351	-8.1082	3.8029	-3.285	-8.2456	-5.1306	-4.6412	-3.7689	2.1201	-10.3904	-7.9508	-0.9758	-12.2662	1.6782	-3.363	0.4581	0.3125	0.2196	0.4855	0.3697	0.3077	0.2081	0.4124	0.3447	0.4936	0.4609	0.2495	0.204	0.4908	0.4125	0.2062	0.2676	0.2298	0.2009	6.334	1.5949	5.3693	12	97	1.326809714285	1	0
"98"	12	11	2	0	0	0	6	1	1	2.207	-1.0613	-3.1446	-0.9962	7.7714	-1.2783	7.3328	-4.9601	-0.6804	6.2739	-0.1882	4.0537	7.5077	0.8989	-0.5467	-7.7119	-8.8089	-2.9554	6.5485	-6.0611	-0.2768	0.5003	0.4465	0.3996	0.4489	0.2832	0.2038	0.3392	0.2006	0.3012	0.2513	0.3983	0.2455	0.3055	0.2108	0.4639	0.246	0.4368	0.3706	0.268	6.32	1.568	3.7914	12	98	0.791634127274599	1	0
"99"	12	3	2	-1	-1.625	1	5	-1	1	1.58	-4.3806	-1.1786	-7.1443	-9.3288	1.5508	-0.5588	2.4644	-8.225	5.0688	0.2037	-1.5858	0.5294	-1.5606	-0.7894	4.9861	-10.5083	-5.5944	8.405	-1.2672	-5.1336	0.333	0.333	0.333	0.333	0.333	0.333	0.333	0.333	0.333	0.333	0.333	0.333	0.333	0.333	0.333	0.333	0.333	0.333	0.333	6.327	1.5771	3.1643	12	99	0.457424847038875	0	1
"100"	12	63	2	4	6.5	1	7	1	1	2.112	8.98	0.4694	8.0849	0.1511	6.1062	6.4893	2.7005	14.5998	12.6794	5.1668	5.6518	9.3834	4.8493	6.7643	14.3277	-0.9741	13.8216	3.762	-1.6392	8.1615	0.333	0.333	0.333	0.333	0.333	0.333	0.333	0.333	0.333	0.333	0.333	0.333	0.333	0.333	0.333	0.333	0.333	0.333	0.333	6.327	1.7281	3.846	12	100	0.747635365844015	1	0
"101"	12	8	2	-4	-6.5	0	10	-1	1	2.926	-1.557	-12.0577	-10.8831	-13.4787	-3.5556	-1.82	-13.4724	-4.8776	-3.188	-2.9055	-13.8498	-11.3315	0.4133	-1.7308	-7.9301	0.8052	-9.1815	-0.8899	-9.3515	-7.3211	0.327	0.2038	0.2433	0.3604	0.2095	0.3992	0.2159	0.2479	0.4774	0.512	0.2213	0.376	0.5017	0.4242	0.2929	0.3829	0.249	0.2047	0.4697	6.3187	1.6498	4.5767	12	101	1.07363630259793	0	1
"102"	12	17	2	-1	-1.625	1	11	-1	1	3.615	0.3787	-5.1745	4.511	-0.6449	0.1301	7.9233	-6.6172	-10.503	-3.8376	-3.1343	1.3623	-1.0045	-2.324	4.4879	5.8454	-6.763	-4.7896	-9.6867	-4.3165	2.6162	0.333	0.333	0.333	0.333	0.333	0.333	0.333	0.333	0.333	0.333	0.333	0.333	0.333	0.333	0.333	0.333	0.333	0.333	0.333	6.327	1.4367	5.0489	12	102	1.28509185561073	0	1
"103"	12	31	2	-1	-1.625	1	11	1	0	3.564	-1.3053	-1.1633	7.5406	2.7694	-2.0893	0.3919	-5.6073	-13.2984	4.9347	-3.7646	0.1207	-6.8484	-1.4733	3.092	4.2276	-0.4564	-2.5469	-3.9017	-9.1798	-3.2539	0.333	0.333	0.333	0.333	0.333	0.333	0.333	0.333	0.333	0.333	0.333	0.333	0.333	0.333	0.333	0.333	0.333	0.333	0.333	6.327	1.6282	5.1978	12	103	1.27088350960856	1	0
"104"	12	12	2	1	1.625	0	5	1	1	1.248	5.3155	10.7964	6.3077	-0.4236	0.3709	1.061	-7.3796	-1.3112	6.2879	6.1874	-3.3985	6.9496	-5.8153	0.2444	6.615	-5.2187	3.1969	3.0193	2.1351	-3.6889	0.2156	0.4581	0.215	0.2831	0.3968	0.4934	0.4135	0.22	0.4969	0.2323	0.3931	0.269	0.2249	0.3317	0.4104	0.2125	0.3143	0.5151	0.2293	6.325	1.5419	2.7982	12	104	0.221542269947236	1	0
"105"	12	65	2	-2	-3.25	0	6	-1	1	1.899	-6.4044	-2.8228	-7.2933	-6.6747	0.0822	-6.6957	-4.4885	-11.5748	-4.358	-10.0425	0.3036	2.8677	2.9595	-0.506	-4.483	-7.2242	2.9313	-4.4829	8.7225	-5.9042	0.4261	0.2544	0.4335	0.2483	0.3762	0.2527	0.2059	0.2346	0.2815	0.4781	0.3942	0.2823	0.4274	0.2856	0.3563	0.2523	0.3937	0.4246	0.3265	6.3343	1.7168	3.633	12	105	0.641327431830149	0	1
"106"	12	34	2	2	3.25	1	5	1	1	1.542	2.6447	2.1287	5.7873	5.1667	8.251	4.6821	0.2552	0.6722	4.1956	11.1087	0.2109	-5.3631	-1.0074	2.0338	7.5266	-3.7005	8.0433	14.6552	-0.9978	0.3395	0.333	0.333	0.333	0.333	0.333	0.333	0.333	0.333	0.333	0.333	0.333	0.333	0.333	0.333	0.333	0.333	0.333	0.333	0.333	6.327	1.6656	3.2258	12	106	0.433080275141138	1	0
"107"	12	28	2	4	6.5	0	5	1	1	1.253	4.9426	10.7882	4.392	14.9773	6.0626	6.2171	15.6043	7.4159	-0.4139	8.821	2.4539	14.9183	-0.1404	2.0107	3.4489	2.9024	13.2075	3.9262	2.6969	4.3397	0.2445	0.3779	0.2417	0.2807	0.3469	0.2545	0.4688	0.3518	0.3887	0.2547	0.3771	0.3487	0.466	0.2921	0.5163	0.1999	0.2622	0.2154	0.4405	6.3288	1.4043	2.6701	12	107	0.225540675913931	1	0
"108"	12	64	2	-4	-6.5	0	6	-1	1	1.927	-9.7356	4.5464	3.2419	-12.5022	-8.3466	-8.0698	-4.3895	-10.4196	-8.4755	-8.4844	-1.4026	-13.0174	-6.0754	-7.9207	-7.9241	-1.448	-4.1832	-13.8345	-9.5549	-3.5833	0.454	0.2521	0.314	0.2002	0.2659	0.4461	0.3204	0.449	0.2912	0.3549	0.4093	0.2452	0.3444	0.4357	0.3434	0.4019	0.203	0.3546	0.2411	6.3264	1.576	3.5111	12	108	0.655964389432229	0	1
"109"	12	25	2	0	0	0	8	1	1	2.26	-0.2845	4.8929	-3.585	-1.3769	-8.7147	-0.662	1.6575	-6.2175	-2.7033	5.5707	-1.6877	5.0155	5.6679	4.0474	-2.5997	-0.1302	7.0447	1.9134	3.6825	-11.8862	0.3444	0.2709	0.2367	0.2868	0.4419	0.3521	0.2301	0.323	0.2167	0.3734	0.2496	0.4153	0.3533	0.3904	0.3	0.3286	0.2504	0.4345	0.5323	6.3304	1.4484	3.711	12	109	0.815364813284194	1	0
"110"	12	36	2	-4	-6.5	0	6	-1	1	1.807	-5.0956	-8.6284	-1.4431	2.4864	-12.6122	-13.3389	-11.7678	-4.9666	-8.2274	0.9853	-10.1515	-15.9466	-9.6092	-6.6386	0.8795	-8.0011	-3.8555	-3.1736	-6.2834	-3.656	0.3107	0.3543	0.2977	0.4892	0.2417	0.4122	0.209	0.3016	0.2395	0.2072	0.4059	0.2062	0.4026	0.3424	0.4957	0.3163	0.2811	0.4904	0.32	6.3238	1.4487	3.2573	12	110	0.591668011610091	0	1
"111"	12	70	2	4	6.5	0	4	1	1	1.32	9.783	11.1635	4.3795	12.3674	11.6238	12.7572	5.1846	-5.067	8.6037	8.2466	-0.9596	11.8371	1.1149	10.4202	6.0984	2.4925	2.1789	7.4498	7.4057	0.9807	0.4486	0.3062	0.335	0.4659	0.3633	0.3099	0.4043	0.2077	0.2875	0.2337	0.2944	0.2688	0.3548	0.2666	0.493	0.2191	0.2925	0.363	0.406	6.3202	1.482	2.8035	12	111	0.27763173659828	1	0
"112"	12	61	2	1	1.625	1	8	1	1	2.507	1.4694	1.7481	6.3509	-4.9787	7.0947	-6.5803	-0.7245	-1.2547	3.363	-1.6824	4.0207	-4.833	-1.1794	0.1659	-2.8412	6.0028	-0.8	11.1754	9.2961	6.8187	0.333	0.333	0.333	0.333	0.333	0.333	0.333	0.333	0.333	0.333	0.333	0.333	0.333	0.333	0.333	0.333	0.333	0.333	0.333	6.327	1.5504	4.0582	12	112	0.919086819176156	1	0
"113"	12	27	2	2	3.25	0	9	1	1	2.6	4.0687	-1.3906	-2.393	8.8453	10.3829	-4.8283	-0.6763	3.4221	5.6689	-1.5666	8.2347	7.5112	-1.2303	1.0037	-1.9074	-1.2764	10.2269	7.8102	4.2724	8.2067	0.2807	0.4673	0.2631	0.4143	0.3141	0.224	0.3639	0.2037	0.411	0.2155	0.5248	0.2014	0.4775	0.3521	0.2191	0.3163	0.2723	0.4699	0.3381	6.3293	1.6623	4.2669	12	113	0.955511445027436	1	0
"114"	12	54	2	1	1.625	0	4	1	1	1.322	0.7618	6.1545	-0.2265	3.9624	7.2499	-0.672	4.0652	-9.2888	0.2274	6.5742	-2.2335	-8.3884	-0.405	3.4506	-4.097	2.072	10.2059	3.9595	4.415	2.8992	0.4695	0.4168	0.218	0.3178	0.2139	0.3711	0.2985	0.2007	0.4496	0.201	0.4894	0.2141	0.2393	0.3203	0.3916	0.3168	0.5289	0.4266	0.2458	6.3299	1.5	2.8229	12	114	0.279145741429495	1	0
"115"	12	16	2	-2	-3.25	1	5	-1	1	1.466	-1.9997	-4.0976	-5.8892	-1.7456	-0.8211	-11.4566	-9.0783	-2.4041	-5.3701	2.6705	1.2395	-1.2031	-6.1274	-4.5291	-0.9385	8.0703	-13.2852	-6.8977	0.9678	-0.2474	0.333	0.333	0.333	0.333	0.333	0.333	0.333	0.333	0.333	0.333	0.333	0.333	0.333	0.333	0.333	0.333	0.333	0.333	0.333	6.327	1.4905	2.9671	12	115	0.38253760346446	0	1
"116"	12	44	2	-2	-3.25	1	5	-1	1	1.482	-3.7739	3.7435	-3.1575	-5.8554	1.0613	4.6649	-6.1162	-6.1714	-2.2392	-9.9777	-7.7562	-6.3394	-3.6559	2.9111	-8.82	2.8469	-8.3023	-4.6419	-9.4691	4.3264	0.333	0.333	0.333	0.333	0.333	0.333	0.333	0.333	0.333	0.333	0.333	0.333	0.333	0.333	0.333	0.333	0.333	0.333	0.333	6.327	1.4925	2.9823	12	116	0.393392526873895	0	1
"117"	12	50	2	-4	-6.5	0	4	-1	1	1.025	-2.7739	-9.4879	-0.1353	-10.0378	1.6771	-3.2452	-4.9768	-15.7435	-3.481	-11.252	-10.6036	-7.943	-14.2009	-3.4882	-13.502	-2.3459	-6.3386	-1.3752	-4.1386	-6.8633	0.362	0.3173	0.2052	0.4049	0.2785	0.5156	0.2094	0.4332	0.314	0.2186	0.2575	0.466	0.2284	0.3323	0.39	0.4482	0.4957	0.2473	0.2058	6.3298	1.6586	2.6928	12	117	0.0246926125903714	0	1
"118"	12	24	2	-1	-1.625	0	6	-1	1	1.592	-0.1274	-5.7282	-1.4596	-3.3361	-7.639	-8.6779	-4.5321	0.4256	5.8588	-0.1778	6.5072	2.9794	-3.164	4.3741	-0.6467	2.6341	-12.9838	-3.5183	-2.2376	-0.7487	0.2209	0.3376	0.3674	0.2108	0.3619	0.2896	0.2459	0.2021	0.5004	0.2845	0.3581	0.5315	0.4084	0.2485	0.4051	0.3743	0.2202	0.2727	0.4819	6.3219	1.6941	3.3096	12	118	0.464991087422191	0	1
"119"	12	40	2	1	1.625	0	9	-1	0	2.927	1.9058	3.6318	6.9049	0.303	-8.7436	0.9171	-6.694	0.9802	-1.6307	-2.9546	3.2448	6.7118	-1.378	12.1637	6.9528	0.4206	-0.6318	0.9203	6.616	4.7124	0.366	0.2381	0.2846	0.5242	0.3028	0.455	0.3412	0.2183	0.3432	0.2768	0.3819	0.2756	0.463	0.3412	0.4019	0.2596	0.3512	0.2843	0.2107	6.3197	1.6755	4.6115	12	119	1.07397800770975	0	1
"120"	12	14	2	4	6.5	0	9	1	1	2.843	9.2296	2.8445	15.9217	3.1627	9.3565	-5.3745	6.2323	11.7153	4.0918	1.3221	9.9563	6.9779	2.7105	5.7949	5.2055	11.2851	6.6262	4.6994	15.9425	2.4287	0.3504	0.2768	0.508	0.2138	0.2709	0.3474	0.3201	0.3893	0.2773	0.4239	0.3815	0.319	0.2225	0.3601	0.4899	0.2076	0.4155	0.2326	0.3206	6.327	1.5314	4.3937	12	120	1.04485983266886	1	0
"121"	12	38	2	-1	-1.625	0	9	-1	1	2.875	0.099	-1.0918	-9.6274	5.1658	0.9553	-2.7064	-8.0549	2.5296	-0.8522	-15.3979	-3.069	3.5021	-1.0408	-1.764	2.4317	5.3759	-3.4773	0.6934	-5.3581	-2.2829	0.4834	0.2498	0.3342	0.3004	0.3723	0.2308	0.3374	0.215	0.471	0.2101	0.3302	0.2348	0.4515	0.2853	0.4235	0.3912	0.3509	0.2058	0.4525	6.3302	1.515	4.4087	12	121	1.05605267424931	0	1
"122"	12	60	2	0	0	1	6	1	1	1.807	3.9627	1.9861	0.4274	3.4859	-1.0608	10.3641	0.3987	5.6054	4.6667	-0.7762	-3.5232	-6.7108	1.9616	2.6735	2.5734	-10.7286	-9.4564	-2.3686	-1.6762	-0.6591	0.333	0.333	0.333	0.333	0.333	0.333	0.333	0.333	0.333	0.333	0.333	0.333	0.333	0.333	0.333	0.333	0.333	0.333	0.333	6.327	1.6163	3.4414	12	122	0.591668011610091	1	0
"123"	12	53	2	0	0	0	4	-1	1	1.471	-3.0452	-0.4915	3.1086	-10.6945	-2.6574	2.9597	2.1232	-2.2935	11.5365	-6.177	2.651	4.7052	-7.3543	-2.0035	3.9831	4.6024	-2.9443	-0.4801	-3.3029	3.7822	0.3583	0.4006	0.4292	0.51	0.2129	0.3134	0.2884	0.4161	0.3264	0.2373	0.3082	0.2302	0.3178	0.3884	0.2482	0.2033	0.2787	0.4465	0.4104	6.3244	1.5707	3.055	12	123	0.385942441619301	0	1
"124"	12	49	2	4	6.5	1	5	1	1	1.459	2.2356	9.4286	0.921	13.1855	8.0789	4.778	9.814	9.6311	5.1031	4.1638	9.34	15.1649	10.8897	-2.9829	6.445	-4.053	5.7127	11.9073	3.0881	6.0752	0.333	0.333	0.333	0.333	0.333	0.333	0.333	0.333	0.333	0.333	0.333	0.333	0.333	0.333	0.333	0.333	0.333	0.333	0.333	6.327	1.7038	3.176	12	124	0.377751269540649	1	0
"125"	12	15	2	-4	-6.5	1	4	-1	1	1.11	-3.5764	-16.7634	-7.5582	-0.0067	1.1915	-0.4835	-11.1078	-11.5159	-14.7377	-3.2078	-6.1468	-5.7082	-4.6971	-7.1454	-2.0839	-6.3637	-7.6524	-13.5032	-4.5641	-4.262	0.333	0.333	0.333	0.333	0.333	0.333	0.333	0.333	0.333	0.333	0.333	0.333	0.333	0.333	0.333	0.333	0.333	0.333	0.333	6.327	1.7079	2.8273	12	125	0.104360015324243	0	1
"126"	12	32	2	0	0	1	5	-1	1	1.523	-2.4054	-2.0165	-3.1691	1.5559	4.8662	-4.9024	-3.1279	-0.9523	0.4831	12.2558	-1.2158	2.9636	4.9045	1.5947	-6.0028	-2.1108	-1.6466	9.9825	-8.4571	-2.9385	0.333	0.333	0.333	0.333	0.333	0.333	0.333	0.333	0.333	0.333	0.333	0.333	0.333	0.333	0.333	0.333	0.333	0.333	0.333	6.327	1.7177	3.2401	12	126	0.420682073913025	0	1
"127"	12	23	2	-2	-3.25	0	3	-1	1	1.241	1.6431	-4.1922	-6.7158	-16.3649	2.2422	1.9928	-4.3603	1.8563	-6.6091	-1.9583	-2.5862	-10.1139	-2.3272	3.8694	-0.3561	-9.455	-1.7461	0.0456	-4.3841	-3.5321	0.3665	0.437	0.5125	0.3632	0.4961	0.2226	0.4991	0.218	0.2596	0.3001	0.225	0.45	0.2476	0.2983	0.3416	0.2949	0.2277	0.3285	0.2335	6.3217	1.4041	2.6415	12	127	0.21591750622247	0	1
"128"	12	7	2	4	6.5	1	4	1	1	1.258	8.6126	2.5962	12.5428	-2.3066	12.2806	10.5948	1.1189	8.5681	7.6774	-1.096	10.1446	2.2855	7.7442	4.7282	-1.7113	4.0496	12.3533	7.3732	12.1503	11.4048	0.333	0.333	0.333	0.333	0.333	0.333	0.333	0.333	0.333	0.333	0.333	0.333	0.333	0.333	0.333	0.333	0.333	0.333	0.333	6.327	1.4245	2.6923	12	128	0.229523158278249	1	0
"129"	12	58	2	-2	-3.25	1	6	1	0	1.716	-0.4144	-5.3341	3.3787	2.4753	-10.0301	0.2274	-6.886	-7.8703	-3.471	-9.2479	-1.0452	2.2098	-9.5374	-1.5069	-6.2801	-3.2867	-1.4906	6.7025	-5.2606	-10.1346	0.333	0.333	0.333	0.333	0.333	0.333	0.333	0.333	0.333	0.333	0.333	0.333	0.333	0.333	0.333	0.333	0.333	0.333	0.333	6.327	1.5872	3.3001	12	129	0.539996001065771	1	0
"130"	12	37	2	-2	-3.25	0	4	-1	1	1.457	-6.059	-4.3693	4.5197	-1.3697	-2.2975	-4.5044	2.6128	-5.3891	4.5056	-8.8427	-1.166	3.1508	-1.8901	-3.2108	-3.8678	-12.3667	-4.2552	1.5316	-14.1542	-6.5576	0.4343	0.3479	0.2973	0.4636	0.3598	0.244	0.3897	0.3633	0.4111	0.2017	0.2574	0.3774	0.201	0.3803	0.2431	0.4225	0.3127	0.4169	0.2018	6.3259	1.6212	3.0747	12	130	0.376379527213068	0	1
"131"	12	21	2	4	6.5	1	3	1	1	0.901	6.6009	17.9354	2.6087	0.5995	0.8457	13.097	2.6879	11.057	3.1484	9.7667	5.2905	-1.1071	4.957	9.2095	0.1659	5.9075	7.0834	14.3182	8.8761	5.5571	0.333	0.333	0.333	0.333	0.333	0.333	0.333	0.333	0.333	0.333	0.333	0.333	0.333	0.333	0.333	0.333	0.333	0.333	0.333	6.327	1.523	2.4346	12	131	-0.104250021373799	1	0
"132"	12	41	2	2	3.25	0	5	1	1	1.581	0.1952	6.3098	-0.2763	7.4462	1.6588	-1.3474	10.8867	6.1963	6.9298	2.2869	3.9924	12.9777	-2.062	-0.0172	6.4636	7.2287	-3.3257	-4.8786	-2.6951	6.6748	0.2454	0.4788	0.2907	0.4532	0.3065	0.4047	0.3494	0.2381	0.3963	0.2466	0.4206	0.2058	0.5222	0.2794	0.3513	0.2351	0.2658	0.3974	0.2441	6.3315	1.5789	3.1813	12	132	0.458057558227335	1	0
"133"	12	2	2	-2	-3.25	1	3	-1	1	0.95	-3.3918	-5.3911	-13.7054	-1.7034	3.3042	-4.3045	4.6389	-5.3603	-2.6019	3.1459	-0.7287	-6.8769	-6.5652	4.5401	-3.6811	-5.6373	-12.3206	-6.8343	-1.8199	1.9351	0.333	0.333	0.333	0.333	0.333	0.333	0.333	0.333	0.333	0.333	0.333	0.333	0.333	0.333	0.333	0.333	0.333	0.333	0.333	6.327	1.6603	2.6178	12	133	-0.0512932943875506	0	1
"134"	12	59	2	-1	-1.625	1	5	1	0	1.539	-0.5726	-0.7419	4.6907	-2.0122	-8.9839	-0.6594	-4.1382	1.9558	-8.0074	-5.4198	0.9454	-4.7155	-3.147	-4.7108	-8.4229	2.0683	6.0537	1.2158	9.2334	-6.0734	0.333	0.333	0.333	0.333	0.333	0.333	0.333	0.333	0.333	0.333	0.333	0.333	0.333	0.333	0.333	0.333	0.333	0.333	0.333	6.327	1.413	2.9727	12	134	0.431132854856742	1	0
"135"	12	56	2	4	6.5	0	5	1	1	1.619	2.4251	9.0976	2.0082	13.0561	4.9308	10.6135	5.0923	8.3881	1.6694	8.3144	7.8687	8.5131	-3.091	15.608	2.7528	-2.9163	14.4682	6.9445	5.9769	6.9904	0.3871	0.288	0.3624	0.5037	0.3709	0.3439	0.3	0.2131	0.3222	0.2933	0.3618	0.3068	0.3673	0.2133	0.3538	0.211	0.3928	0.3454	0.3881	6.325	1.6646	3.3031	12	135	0.481808674695498	1	0
"136"	12	39	2	0	0	0	7	1	1	2.615	4.9403	-2.1662	8.6717	3.5455	-7.3767	7.4054	-10.2286	1.9883	-2.5891	-0.8759	-3.1109	-2.7622	3.0563	-0.7627	-6.8668	6.9665	3.7187	-0.1522	-2.9315	1.1636	0.3401	0.4039	0.4593	0.2273	0.4994	0.4492	0.3191	0.2803	0.2449	0.2187	0.38	0.2074	0.3045	0.5028	0.2044	0.4439	0.2248	0.3603	0.2527	6.3231	1.5669	4.1993	12	136	0.961264097516886	1	0
"137"	12	5	2	1	1.625	1	4	1	1	1.304	6.163	2.4093	-7.2517	1.0497	1.9021	1.7949	4.74	10.4483	-9.5555	-2.0741	7.6252	2.7263	6.0457	-3.3204	-1.1611	1.7197	0.1473	8.6435	1.4273	0.1748	0.333	0.333	0.333	0.333	0.333	0.333	0.333	0.333	0.333	0.333	0.333	0.333	0.333	0.333	0.333	0.333	0.333	0.333	0.333	6.327	1.4389	2.7545	12	137	0.265436463504461	1	0
"138"	12	20	2	2	3.25	1	10	-1	0	3.028	0.6949	6.3903	3.8128	0.9673	-2.9411	1.0565	-1.0347	5.8874	0.72	-1.9419	8.3982	0.8162	-5.1199	8.5411	9.9695	0.802	16.7183	3.9612	4.8606	3.5216	0.333	0.333	0.333	0.333	0.333	0.333	0.333	0.333	0.333	0.333	0.333	0.333	0.333	0.333	0.333	0.333	0.333	0.333	0.333	6.327	1.6287	4.6623	12	138	1.1079023355752	0	1
"139"	12	6	2	2	3.25	1	7	-1	0	2.259	-1.3932	-3.6234	-1.4016	8.5306	0.3028	7.2453	3.7649	2.6293	5.6219	-3.6182	9.0064	10.8212	-5.0717	0.1442	6.2145	9.5972	4.6662	3.9622	-0.7459	9.6118	0.333	0.333	0.333	0.333	0.333	0.333	0.333	0.333	0.333	0.333	0.333	0.333	0.333	0.333	0.333	0.333	0.333	0.333	0.333	6.327	1.4632	3.726	12	139	0.814922237485866	0	1
"140"	12	19	2	1	1.625	1	5	1	1	1.604	1.9316	5.9258	-3.2275	3.944	-2.5059	6.0019	-1.6359	-1.539	-6.5268	9.8174	7.5877	0.7111	-0.9777	-1.156	4.9576	-2.477	2.2381	-2.5027	13.5379	-1.5885	0.333	0.333	0.333	0.333	0.333	0.333	0.333	0.333	0.333	0.333	0.333	0.333	0.333	0.333	0.333	0.333	0.333	0.333	0.333	6.327	1.5461	3.1545	12	140	0.472500509444323	1	0
"141"	12	66	3	-1	-1.625	0	4	-1	1	1.18	-2.7406	-6.1167	0.5833	1.1007	-0.9718	9.3802	-5.3372	0.763	-9.5217	-1.7585	-2.9431	-6.3384	-3.1994	7.2649	3.2025	-11.7457	-0.8246	-3.0927	2.8421	-2.2091	0.4531	0.3135	0.2682	0.2981	0.2592	0.2333	0.4173	0.4625	0.379	0.2421	0.414	0.2131	0.4608	0.3571	0.2816	0.4664	0.2038	0.234	0.3632	6.3202	1.5047	2.6802	12	141	0.165514438477573	0	1
"142"	12	9	3	-2	-3.25	0	6	1	0	1.995	-5.8578	-0.1428	-8.2088	-6.8367	-2.3592	-11.2509	4.2525	-4.4485	-3.4928	-1.9207	2.7338	-9.8252	-3.9306	-2.9889	3.4766	-4.1511	8.1673	-2.3918	-9.6397	-5.1748	0.3608	0.4445	0.233	0.3696	0.3065	0.4516	0.2748	0.3917	0.4275	0.2078	0.3718	0.3102	0.209	0.396	0.3452	0.2032	0.338	0.3751	0.3007	6.3171	1.711	3.7296	12	142	0.690644050341827	1	0
"143"	12	31	3	-1	-1.625	1	6	-1	1	1.767	1.3306	-7.1615	-2.1092	-3.8013	-10.5487	0.8298	-0.598	-0.2227	-1.8127	6.5309	3.8857	-3.6521	-0.8531	-6.7103	11.0699	-4.9231	-1.0334	-8.9459	-2.1189	-1.7026	0.333	0.333	0.333	0.333	0.333	0.333	0.333	0.333	0.333	0.333	0.333	0.333	0.333	0.333	0.333	0.333	0.333	0.333	0.333	6.327	1.5862	3.3675	12	143	0.569283193337559	0	1
"144"	12	37	3	-2	-3.25	0	4	-1	1	1.529	-1.1178	2.406	-1.3457	-12.8674	-0.575	-1.1314	5.8333	-5.6265	-5.0219	-10.4058	-7.7009	-5.5289	-0.275	-7.8015	-1.6572	-9.9972	-5.9014	-1.77	3.7453	0.6132	0.3558	0.4099	0.3325	0.4318	0.2334	0.3462	0.3959	0.3161	0.2602	0.3501	0.2277	0.4741	0.3119	0.2302	0.2593	0.2193	0.5259	0.2687	0.3811	6.3302	1.6746	3.2128	12	144	0.424613926946925	0	1
"145"	12	32	3	0	0	1	5	-1	1	1.488	-4.0077	3.7621	1.8021	1.3012	-4.3299	-4.0614	-0.5013	-2.082	1.6544	8.0604	11.8443	0.8588	-11.0038	3.9889	-2.5713	-3.9016	1.1816	1.4136	-3.5412	-0.4822	0.333	0.333	0.333	0.333	0.333	0.333	0.333	0.333	0.333	0.333	0.333	0.333	0.333	0.333	0.333	0.333	0.333	0.333	0.333	6.327	1.591	3.0883	12	145	0.3974329364109	0	1
"146"	12	48	3	2	3.25	1	4	1	1	1.281	4.9076	-1.5627	3.0762	9.7359	0.7457	2.772	11.0873	-8.0535	1.1024	-3.6043	13.4212	4.8091	7.591	4.4664	0.7664	6.9489	1.0104	4.4099	-1.145	1.5211	0.333	0.333	0.333	0.333	0.333	0.333	0.333	0.333	0.333	0.333	0.333	0.333	0.333	0.333	0.333	0.333	0.333	0.333	0.333	6.327	1.591	2.8817	12	146	0.247641022914597	1	0
"147"	12	30	3	-2	-3.25	1	6	-1	1	1.739	-2.2715	-3.7191	-5.7509	-7.2038	-8.2307	6.622	5.4603	-2.875	-1.6861	-4.9325	-0.3052	-2.7195	0.3066	-2.6383	-10.8404	-9.4049	-5.9721	2.2855	-12.1582	0.2633	0.333	0.333	0.333	0.333	0.333	0.333	0.333	0.333	0.333	0.333	0.333	0.333	0.333	0.333	0.333	0.333	0.333	0.333	0.333	6.327	1.5107	3.2561	12	147	0.553310235372146	0	1
"148"	12	7	3	4	6.5	1	4	1	1	1.162	5.7617	3.1782	9.2918	3.5994	10.649	5.6402	6.1833	10.2524	5.884	10.0264	11.2236	4.5373	10.4136	9.4168	10.467	-1.426	0.7198	-0.1488	17.1753	-2.7986	0.333	0.333	0.333	0.333	0.333	0.333	0.333	0.333	0.333	0.333	0.333	0.333	0.333	0.333	0.333	0.333	0.333	0.333	0.333	6.327	1.6045	2.7792	12	148	0.150142658429719	1	0
"149"	12	45	3	-1	-1.625	1	4	-1	1	1.248	-2.7463	-4.5263	-5.7515	3.3733	-1.3763	2.8514	-11.0235	0.1855	-3.2754	-11.9023	0.2441	-7.485	2.1402	-5.2492	1.7314	-1.3054	9.7228	-0.5353	0.9067	0.1229	0.333	0.333	0.333	0.333	0.333	0.333	0.333	0.333	0.333	0.333	0.333	0.333	0.333	0.333	0.333	0.333	0.333	0.333	0.333	6.327	1.6836	2.9323	12	149	0.221542269947236	0	1
"150"	12	70	3	4	6.5	0	5	1	1	1.271	6.389	1.356	0.2111	9.2734	4.3808	-2.6108	9.421	2.0269	2.265	7.9538	7.2727	2.3465	9.8609	14.894	15.8977	6.8216	3.4279	7.6553	12.8901	10.0609	0.3806	0.264	0.2979	0.255	0.4368	0.3237	0.4899	0.2571	0.3653	0.2974	0.3757	0.5087	0.3288	0.3804	0.2524	0.2222	0.293	0.3484	0.2473	6.3246	1.6635	2.9385	12	150	0.239803992207317	1	0
"151"	12	40	3	1	1.625	0	6	1	1	1.64	0.3654	-1.8235	3.569	13.7327	2.529	0.8118	4.7777	2.9725	-1.8552	-5.0929	1.3308	-0.6326	-0.4235	-0.005	13.424	5.2684	-2.4734	-4.6323	2.6926	-0.2965	0.2372	0.5132	0.3728	0.263	0.2135	0.4166	0.2056	0.3635	0.2623	0.2961	0.4825	0.2872	0.3784	0.3477	0.4131	0.2986	0.2664	0.3232	0.3881	6.3289	1.6182	3.2578	12	151	0.494696241836107	1	0
"152"	12	54	3	1	1.625	0	4	1	1	1.102	-2.3452	5.7856	11.2351	2.4631	3.5406	8.91	-4.8649	-5.5147	0.7274	3.0168	3.6797	1.9964	-3.0761	6.5299	-3.2625	-0.5747	-3.9608	5.9766	-4.4016	6.3498	0.227	0.4663	0.3547	0.21	0.4695	0.3938	0.2109	0.2962	0.2705	0.4472	0.298	0.2133	0.4577	0.3953	0.2303	0.3178	0.3954	0.4529	0.2203	6.327	1.5502	2.6532	12	152	0.0971267107307228	1	0
"153"	12	15	3	-4	-6.5	1	4	-1	1	1.26	-2.4749	-1.8672	1.2701	-10.5558	-1.7411	-10.5115	-7.0663	1.9643	-10.3906	-4.4242	-12.9034	-8.7158	-5.9027	-18.26	-10.971	-5.8929	-11.1778	-3.3688	-3.542	-4.6221	0.333	0.333	0.333	0.333	0.333	0.333	0.333	0.333	0.333	0.333	0.333	0.333	0.333	0.333	0.333	0.333	0.333	0.333	0.333	6.327	1.5521	2.811	12	153	0.231111720963387	0	1
"154"	12	28	3	4	6.5	0	3	1	1	0.949	7.2507	15.3516	10.7832	8.4753	0.3802	7.698	2.5017	5.9689	3.0735	7.9163	6.3357	-2.541	12.1106	6.2314	0.2723	15.7296	9.2334	-0.1777	4.661	9.7167	0.3768	0.4629	0.421	0.3485	0.4211	0.2452	0.3231	0.3587	0.2403	0.398	0.2802	0.5105	0.2031	0.4036	0.2929	0.2397	0.2928	0.2061	0.2942	6.3189	1.5327	2.4831	12	154	-0.0523464803722092	1	0
"155"	12	23	3	-2	-3.25	0	8	-1	1	2.442	0.9138	0.1533	0.3361	0.9185	1.3109	-4.43	-1.8922	-16.0524	-9.7116	-2.1093	4.1636	-4.8101	-3.1493	-9.3826	-3.2932	-8.3561	5.0089	-5.2961	-3.6001	-6.068	0.274	0.2281	0.2897	0.4034	0.2881	0.3228	0.2185	0.4297	0.495	0.3031	0.2509	0.513	0.3326	0.2263	0.3944	0.2566	0.3876	0.474	0.2388	6.3265	1.4612	3.9091	12	155	0.892817375688513	0	1
"156"	12	53	3	0	0	0	4	-1	0	1.107	-3.7408	-10.804	0.131	-1.0957	-8.3993	5.1322	3.2784	10.8732	2.3315	2.0458	5.1658	1.6856	1.9888	-3.6675	-2.8385	-3.1989	2.6187	-6.5037	2.8245	0.6063	0.299	0.2375	0.4015	0.3631	0.3033	0.2639	0.4844	0.3874	0.2323	0.3407	0.4199	0.5094	0.217	0.4968	0.2209	0.2629	0.3534	0.3048	0.2348	6.3332	1.6956	2.8244	12	156	0.1016536537265	0	1
"157"	12	49	3	4	6.5	1	4	1	1	1.074	7.4637	7.9706	5.4085	0.335	8.5226	6.5324	16.1463	8.6464	0.5419	13.1289	1.1731	9.7202	8.0858	3.139	2.1352	1.3912	17.7466	6.9967	5.6238	1.2428	0.333	0.333	0.333	0.333	0.333	0.333	0.333	0.333	0.333	0.333	0.333	0.333	0.333	0.333	0.333	0.333	0.333	0.333	0.333	6.327	1.4841	2.5753	12	157	0.071389996086673	1	0
"158"	12	55	3	2	3.25	0	8	1	1	2.027	5.2002	0.5563	-4.9597	9.804	0.5085	1.8855	7.6626	9.7894	6.0313	-1.173	-2.7142	5.3362	6.3951	0.912	-0.5165	6.8646	-8.1677	7.6466	6.3897	5.5986	0.3176	0.2756	0.3402	0.2072	0.2365	0.3335	0.2414	0.3806	0.3222	0.5205	0.3421	0.3836	0.4618	0.2973	0.4558	0.413	0.2089	0.2774	0.3118	6.3269	1.4081	3.4448	12	158	0.706556867469863	1	0
"159"	12	11	3	0	0	0	6	-1	1	1.972	-4.1468	-4.8066	1.5225	-9.5152	-3.2556	-3.523	-1.1582	-0.7352	3.2451	-8.8534	4.3952	6.6289	2.6846	6.6682	8.2202	-1.0728	-0.2925	0.1392	5.1973	0.4979	0.3897	0.4999	0.3512	0.2809	0.3511	0.3166	0.2364	0.2846	0.3981	0.2137	0.4728	0.4076	0.3823	0.2954	0.4648	0.2107	0.2404	0.2132	0.3268	6.3361	1.4978	3.4892	12	159	0.679048256180444	0	1
"160"	12	34	3	2	3.25	1	4	1	1	1.122	5.885	5.8499	4.4627	-0.016	9.2748	-3.9693	3.605	2.58	12.1771	13.3748	1.4722	0.6529	-3.8126	3.6752	2.0849	0.0219	2.6288	8.7864	-4.1089	0.4303	0.333	0.333	0.333	0.333	0.333	0.333	0.333	0.333	0.333	0.333	0.333	0.333	0.333	0.333	0.333	0.333	0.333	0.333	0.333	6.327	1.712	2.8392	12	160	0.115112807100505	1	0
"161"	12	18	3	0	0	1	6	-1	1	1.812	-4.4719	6.8931	2.8404	-3.8702	3.6607	-6.8872	-0.8393	-3.1482	-6.8815	3.5479	5.4709	-2.7791	4.2661	-2.2608	2.2103	7.8176	-5.7932	7.6812	-1.9526	-6.351	0.333	0.333	0.333	0.333	0.333	0.333	0.333	0.333	0.333	0.333	0.333	0.333	0.333	0.333	0.333	0.333	0.333	0.333	0.333	6.327	1.6865	3.5127	12	161	0.594431207620788	0	1
"162"	12	36	3	-4	-6.5	0	6	-1	1	1.742	-11.4152	0.9589	-4.2164	-11.4553	-9.8585	-1.8432	-12.0238	-7.0443	0.448	-6.1437	-16.3535	-1.838	-13.2085	-8.538	-4.1209	-6.8674	-1.3416	0.0573	-7.0943	-10.0712	0.2423	0.429	0.2972	0.532	0.2369	0.366	0.4254	0.367	0.3941	0.2514	0.4786	0.2059	0.4664	0.2524	0.3456	0.2048	0.2429	0.3131	0.2703	6.321	1.4322	3.1765	12	162	0.555033878430311	0	1
"163"	12	10	3	-1	-1.625	0	10	1	0	3.034	-4.5113	-0.9879	6.6322	1.2217	-2.3045	-5.8868	7.0126	-8.8006	-2.1475	-0.6996	-4.2667	2.9719	3.054	-3.4807	-8.7115	1.9443	1.9359	0.789	-6.6964	-10.536	0.2235	0.3154	0.2326	0.4003	0.5059	0.2278	0.383	0.261	0.4143	0.4669	0.3241	0.3987	0.3157	0.2508	0.292	0.257	0.3551	0.2221	0.4863	6.3324	1.5305	4.568	12	163	1.10988188092634	1	0
"164"	12	12	3	1	1.625	0	6	-1	0	1.878	1.7148	-0.7996	2.3077	7.5334	3.7537	5.8789	3.5317	-0.8234	4.2485	-1.0234	-9.8718	-5.5036	4.9431	0.9879	-4.5393	11.8172	7.1167	2.4002	-1.7956	0.204	0.2992	0.3574	0.4779	0.4194	0.3187	0.3964	0.4346	0.2459	0.3034	0.2004	0.2404	0.4264	0.2665	0.2959	0.4445	0.3141	0.2578	0.2179	0.4036	6.3203	1.7098	3.5955	12	164	0.630207380786071	0	1
"165"	12	29	3	-4	-6.5	1	11	1	0	3.624	-3.8868	-15.668	-1.892	-13.5463	-0.7557	-7.7006	-3.1485	-4.6922	-4.8392	-2.5699	-10.2648	3.8068	-6.5831	-13.8046	-2.4668	-11.1281	-10.6598	-10.4278	-7.2551	-2.219	0.333	0.333	0.333	0.333	0.333	0.333	0.333	0.333	0.333	0.333	0.333	0.333	0.333	0.333	0.333	0.333	0.333	0.333	0.333	6.327	1.4517	5.0747	12	165	1.28757838818073	1	0
"166"	12	5	3	1	1.625	1	6	1	1	1.891	3.3534	12.2135	-6.4423	4.9293	1.1182	-4.1109	-2.7771	-5.3115	1.8002	2.3539	1.3945	8.1981	7.4339	5.1968	4.7588	-1.7297	3.1827	-5.1447	1.3637	-0.579	0.333	0.333	0.333	0.333	0.333	0.333	0.333	0.333	0.333	0.333	0.333	0.333	0.333	0.333	0.333	0.333	0.333	0.333	0.333	6.327	1.4302	3.3248	12	166	0.63710578967632	1	0
"167"	12	47	3	1	1.625	1	4	1	1	1.181	5.4885	1.6406	-2.4074	16.9025	-1.1614	7.4232	-0.1423	6.3099	-1.3086	2.4311	0.8097	1.7951	-0.2184	-3.309	4.0341	2.8776	-7.7309	-0.6521	-1.466	0.4554	0.333	0.333	0.333	0.333	0.333	0.333	0.333	0.333	0.333	0.333	0.333	0.333	0.333	0.333	0.333	0.333	0.333	0.333	0.333	6.327	1.6024	2.7819	12	167	0.166361537215225	1	0
"168"	12	27	3	2	3.25	0	9	1	1	2.644	1.3224	-2.2969	4.8485	1.4125	-1.9803	10.0379	-0.1052	0.2304	5.9356	6.7972	7.9219	4.4037	-11.5355	7.9522	5.7943	1.7458	6.1577	9.682	6.1225	2.4584	0.2451	0.3576	0.2927	0.3257	0.2301	0.2763	0.3686	0.4667	0.4417	0.292	0.456	0.4275	0.3025	0.3276	0.2059	0.2414	0.21	0.4782	0.3731	6.3188	1.7161	4.3612	12	168	0.97229292198944	1	0
"169"	12	6	3	2	3.25	1	5	1	1	1.409	1.1727	6.3209	2.2455	0.6279	4.2306	10.7108	4.5463	1.7513	12.1792	6.1449	2.4121	14.1245	-3.6174	1.8927	-1.5912	-3.7551	3.0236	6.6818	-0.276	-4.4138	0.333	0.333	0.333	0.333	0.333	0.333	0.333	0.333	0.333	0.333	0.333	0.333	0.333	0.333	0.333	0.333	0.333	0.333	0.333	6.327	1.551	2.9769	12	169	0.342880232916543	1	0
"170"	12	21	3	4	6.5	1	4	1	1	1.074	2.581	7.7911	9.6369	3.2608	4.1471	9.5857	12.5981	6.0799	4.096	7.0913	15.3852	9.49	6.0469	6.5331	7.6699	12.3303	0.2367	0.4732	-6.0887	9.2349	0.333	0.333	0.333	0.333	0.333	0.333	0.333	0.333	0.333	0.333	0.333	0.333	0.333	0.333	0.333	0.333	0.333	0.333	0.333	6.327	1.484	2.5751	12	170	0.071389996086673	1	0
"171"	12	3	3	-1	-1.625	1	3	-1	1	0.757	-6.6124	-5.792	0.55	0.4646	6.5939	-9.0066	3.2584	-2.5225	-9.8626	-1.6326	-7.7412	-1.2623	4.5821	2.4179	-7.4276	3.5018	2.638	-5.7088	2.6924	-0.8342	0.333	0.333	0.333	0.333	0.333	0.333	0.333	0.333	0.333	0.333	0.333	0.333	0.333	0.333	0.333	0.333	0.333	0.333	0.333	6.327	1.5421	2.3078	12	171	-0.278392025544688	0	1
"172"	12	62	3	2	3.25	1	4	1	1	1.001	3.1385	3.6865	4.9445	12.9157	3.4514	2.1671	-4.3604	-2.1428	0.0171	-2.5057	8.8656	-1.0801	3.4632	-4.108	1.0549	4.2217	7.3176	5.6572	3.4055	14.1967	0.333	0.333	0.333	0.333	0.333	0.333	0.333	0.333	0.333	0.333	0.333	0.333	0.333	0.333	0.333	0.333	0.333	0.333	0.333	6.327	1.7074	2.7182	12	172	0.000999500333083423	1	0
"173"	12	57	3	-4	-6.5	1	4	-1	1	1.17	-6.4359	-3.1456	-2.9598	-4.447	-6.1123	-2.4677	-14.4095	4.9851	-3.3838	-7.9295	-10.5545	-6.4107	-7.6831	-7.744	-0.7199	-11.4772	-17.6579	-6.46	-10.2198	-3.9875	0.333	0.333	0.333	0.333	0.333	0.333	0.333	0.333	0.333	0.333	0.333	0.333	0.333	0.333	0.333	0.333	0.333	0.333	0.333	6.327	1.4213	2.6035	12	173	0.157003748809665	0	1
"174"	12	4	3	0	0	1	9	1	1	2.933	3.2823	3.5412	0.0737	8.3259	-11.3637	-1.1185	-8.5017	5.1972	-6.4504	1.8277	-4.2277	3.0134	1.2826	-0.8855	-0.1314	-0.2782	-6.4486	4.7316	3.836	4.1974	0.333	0.333	0.333	0.333	0.333	0.333	0.333	0.333	0.333	0.333	0.333	0.333	0.333	0.333	0.333	0.333	0.333	0.333	0.333	6.327	1.7308	4.6672	12	174	1.07602578999531	1	0
"175"	12	13	3	2	3.25	0	3	1	1	0.944	2.6841	9.2589	-4.3632	4.9202	13.9291	6.3403	-3.9921	4.204	7.1534	4.1556	-2.829	-3.2392	7.3222	5.6051	-1.1713	-3.4144	2.2007	5.0546	6.6144	5.2611	0.2274	0.4829	0.3835	0.2669	0.4229	0.4752	0.283	0.3263	0.3872	0.2157	0.2413	0.2906	0.339	0.2232	0.3203	0.3742	0.318	0.4502	0.3088	6.3367	1.4714	2.4281	12	175	-0.0576291128366364	1	0
"176"	12	8	3	-4	-6.5	0	5	1	0	1.495	-1.9017	-13.5639	-3.7352	-5.1387	-0.2653	-2.9099	-10.2087	-10.1193	-11.0902	-10.8637	-2.5409	-7.7326	-10.9821	-1.3759	4.4659	-12.5181	-2.6567	-14.1708	-6.8378	-7.1094	0.4321	0.3525	0.2098	0.4966	0.296	0.2663	0.3138	0.3403	0.2997	0.5016	0.4671	0.2318	0.2924	0.4105	0.208	0.2424	0.363	0.2807	0.3215	6.3261	1.572	3.0787	12	176	0.40212620684265	1	0
"177"	12	22	3	-4	-6.5	0	4	-1	1	0.97	-7.7578	-11.2739	-8.3607	-1.6413	-6.0893	-10.9173	-3.4648	-7.4522	-3.5176	-1.1656	-17.358	-0.5649	-4.7333	-0.4887	-12.583	-9.8309	-7.8743	-1.1903	-12.8423	-0.4425	0.3016	0.3405	0.2787	0.4713	0.3535	0.2111	0.4992	0.3333	0.4187	0.2436	0.269	0.2976	0.3964	0.2861	0.3694	0.4593	0.2632	0.3184	0.2073	6.3183	1.6477	2.6211	12	177	-0.0304592074847086	0	1
"178"	12	42	3	4	6.5	0	5	1	1	1.177	5.6056	6.1894	10.0633	8.5432	2.2035	10.9174	7.6958	9.8161	-1.8616	-3.0625	1.831	9.5277	9.0626	8.4916	5.7195	7.5003	9.1068	10.9353	-2.4627	15.5516	0.2194	0.2783	0.2139	0.2948	0.4205	0.3849	0.2161	0.4122	0.3754	0.2164	0.3174	0.2338	0.2664	0.4904	0.4548	0.3127	0.4085	0.4481	0.3533	6.3175	1.6188	2.7943	12	178	0.16296882827814	1	0
"179"	12	41	3	2	3.25	0	4	1	1	1.13	3.0919	3.543	3.8745	3.1748	8.8159	6.7045	1.8167	-0.6559	10.1911	1.6757	3.668	3.8692	1.152	-4.4247	-0.374	9.1765	-6.8837	15.4731	3.4746	-0.9009	0.2632	0.2382	0.4357	0.2482	0.2991	0.4116	0.2851	0.2308	0.4286	0.3976	0.4378	0.3011	0.2294	0.4271	0.2479	0.355	0.4294	0.3947	0.2733	6.3339	1.4006	2.5309	12	179	0.122217632724249	1	0
"180"	12	44	3	-2	-3.25	1	5	-1	1	1.512	-1.587	-4.9803	-4.8566	-14.0346	-1.2688	-5.912	-1.4773	-6.3912	-4.1003	10.8857	2.8332	-2.1199	-6.8417	-6.6428	-4.1378	-8.0304	-5.5986	1.2903	1.0914	-1.1839	0.333	0.333	0.333	0.333	0.333	0.333	0.333	0.333	0.333	0.333	0.333	0.333	0.333	0.333	0.333	0.333	0.333	0.333	0.333	6.327	1.6211	3.1459	12	180	0.413433277757341	0	1
"181"	12	25	3	0	0	0	5	-1	1	1.279	-1.7726	1.246	-2.0888	3.2205	-5.3556	3.2567	-3.114	14.9974	-7.0465	-0.586	0.3871	2.5976	-8.0792	3.9399	1.8303	-1.6569	1.0128	-3.9135	0.9032	-1.4977	0.2291	0.2575	0.4308	0.2357	0.4425	0.4749	0.4399	0.2123	0.3998	0.5194	0.263	0.2257	0.492	0.2441	0.277	0.4501	0.2277	0.293	0.2214	6.3358	1.4592	2.7464	12	181	0.246078522596706	0	1
"182"	12	38	3	-1	-1.625	0	6	-1	1	1.535	-5.0351	-7.4469	-6.5969	2.7813	-6.982	-6.0022	-3.2814	2.6167	-0.8947	-3.5557	2.4593	0.7226	-5.7699	4.1325	2.4897	1.0269	-11.4384	4.8135	-4.04	7.3437	0.2677	0.2079	0.3486	0.2353	0.2605	0.4409	0.2363	0.4597	0.2946	0.2338	0.3239	0.2589	0.4399	0.2842	0.399	0.4599	0.5327	0.2526	0.3922	6.3284	1.4711	3.0019	12	182	0.42853038103916	0	1
"183"	12	46	3	0	0	1	5	1	0	1.463	-0.3562	-0.309	5.7792	5.4165	-2.6783	-2.5921	-0.1834	-1.2936	-3.2768	5.7139	-10.9847	-4.5178	-7.6725	4.2076	2.1725	6.4805	-4.5001	0.0643	2.0376	7.0155	0.333	0.333	0.333	0.333	0.333	0.333	0.333	0.333	0.333	0.333	0.333	0.333	0.333	0.333	0.333	0.333	0.333	0.333	0.333	6.327	1.5147	2.9803	12	183	0.380489122037987	1	0
"184"	12	51	3	-2	-3.25	0	8	-1	1	2.47	-4.9075	-3.4454	-0.9328	-3.1177	0.7952	2.2347	-13.2094	-8.7338	-2.0846	-3.8242	-0.9154	-1.6612	-11.3185	5.0981	0.1009	-11.6215	2.6333	-3.0989	0.0267	-6.2746	0.2888	0.2108	0.3584	0.4954	0.2213	0.4045	0.3167	0.3779	0.4173	0.3739	0.3195	0.422	0.2004	0.2633	0.2888	0.2093	0.4355	0.5234	0.2028	6.33	1.7077	4.1873	12	184	0.904218150639886	0	1
"185"	12	33	3	1	1.625	1	3	1	1	0.971	0.6869	7.3025	-6.9604	0.1142	10.2827	4.7691	4.0049	2.1192	5.4248	1.636	1.9497	2.3728	2.5597	-1.9987	5.39	-11.1752	5.064	3.8165	-4.1126	-1.233	0.333	0.333	0.333	0.333	0.333	0.333	0.333	0.333	0.333	0.333	0.333	0.333	0.333	0.333	0.333	0.333	0.333	0.333	0.333	6.327	1.5007	2.4881	12	185	-0.0294288106908122	1	0
"186"	12	1	3	-4	-6.5	1	4	-1	1	1.049	-4.4258	-5.6567	-5.7106	-10.4852	0.8856	-13.0669	-3.3837	-7.9937	-6.6821	-5.9885	-10.038	-1.7907	2.8716	-8.1735	-8.4843	-1.6878	-8.8207	-19.8233	-9.0299	-1.9326	0.333	0.333	0.333	0.333	0.333	0.333	0.333	0.333	0.333	0.333	0.333	0.333	0.333	0.333	0.333	0.333	0.333	0.333	0.333	6.327	1.532	2.6003	12	186	0.0478373294141601	0	1
"187"	12	43	3	-4	-6.5	1	6	-1	1	1.866	-5.2718	-1.0046	-0.9343	-14.3477	-0.6211	-11.3882	-6.7527	-14.8597	-8.9679	-7.4499	-0.7694	-8.076	-0.8915	-9.6557	-5.0861	-16.3004	-6.0523	-2.8765	-0.1018	-6.9182	0.333	0.333	0.333	0.333	0.333	0.333	0.333	0.333	0.333	0.333	0.333	0.333	0.333	0.333	0.333	0.333	0.333	0.333	0.333	6.327	1.4081	3.283	12	187	0.623797102425152	0	1
"188"	12	56	3	4	6.5	0	3	1	1	0.765	9.7816	8.6239	6.752	7.432	4.872	1.5795	-4.8962	-0.3248	6.9961	0.4621	15.514	9.6231	5.7627	13.3244	9.5198	9.6738	11.9961	9.7729	4.055	1.02	0.2476	0.3665	0.2023	0.3279	0.3583	0.276	0.2477	0.3572	0.2918	0.5113	0.2909	0.2627	0.3497	0.4209	0.3832	0.3317	0.247	0.4521	0.4066	6.3315	1.5586	2.3325	12	188	-0.267879445155601	1	0
"189"	12	2	3	-2	-3.25	1	9	-1	1	2.675	-0.6333	-2.2836	-5.3992	-9.1425	-4.0754	0.7261	1.4398	-3.6986	-4.5504	-13.8794	-0.2015	-3.8815	-5.2518	2.9214	6.2163	3.6044	-5.3431	-8.7258	-4.6205	-9.969	0.333	0.333	0.333	0.333	0.333	0.333	0.333	0.333	0.333	0.333	0.333	0.333	0.333	0.333	0.333	0.333	0.333	0.333	0.333	6.327	1.4507	4.1422	12	189	0.98394938034797	0	1
"190"	12	39	3	0	0	0	6	-1	1	1.49	-1.4965	-5.4351	7.7212	0.0676	-5.974	6.4998	-8.2774	9.9305	-1.7564	-2.0687	5.0547	1.8619	-5.8619	6.7739	-3.6037	0.7127	-1.4764	-4.1022	0.0151	0.5108	0.2704	0.3573	0.2878	0.2073	0.2391	0.398	0.2264	0.4175	0.3423	0.3147	0.4827	0.4045	0.3422	0.3814	0.2198	0.403	0.2546	0.4948	0.2769	6.321	1.6609	3.1574	12	190	0.398776119957368	0	1
"191"	12	67	3	0	0	0	3	-1	1	0.993	-2.2972	-7.1516	-0.6257	3.5356	-5.7198	3.1843	8.5535	-1.0628	-2.4025	1.2399	-4.4835	5.1476	0.5255	-8.5775	4.2396	8.0178	6.955	-4.5152	0.2675	-3.6878	0.4437	0.361	0.2693	0.4253	0.3133	0.2682	0.5118	0.2403	0.4381	0.3	0.215	0.3257	0.2936	0.2572	0.4086	0.3313	0.2206	0.4524	0.2487	6.3242	1.4318	2.4268	12	191	-0.00702461493696447	0	1
"192"	12	26	3	1	1.625	0	8	-1	0	2.431	-0.8768	4.9892	-1.3311	0.1428	-2.6073	-3.1413	-2.2184	-7.0214	2.2612	2.1563	10.4177	6.9664	4.4034	-2.0657	-2.4834	12.8283	4.8883	5.7544	-0.5267	1.5104	0.2258	0.42	0.2586	0.3585	0.2448	0.4682	0.2547	0.3353	0.5201	0.2633	0.3867	0.3278	0.216	0.3514	0.44	0.3769	0.32	0.2125	0.3527	6.3336	1.5686	4.0155	12	192	0.888302695333986	0	1
"193"	12	52	3	-1	-1.625	0	11	1	0	3.743	-3.2295	-5.2351	13.1818	-0.7033	-7.1035	-0.9008	1.019	-8.3128	-1.4807	-1.5166	-2.6812	4.3541	1.8202	-5.0516	4.7379	-8.2064	-0.5051	-6.0575	-2.8885	-4.5935	0.2903	0.3575	0.2303	0.4314	0.2767	0.5192	0.2214	0.5131	0.3542	0.2675	0.3634	0.219	0.3687	0.2936	0.2516	0.2048	0.3172	0.458	0.3915	6.3294	1.501	5.2442	12	193	1.31988742892229	1	0
"194"	12	58	3	-2	-3.25	1	6	-1	1	1.961	-1.9214	-5.6762	-1.0992	-8.7854	-6.9361	-11.2505	-3.5274	-2.562	2.8942	-2.3206	0.332	-1.8627	-2.2651	0.5028	-15.3365	-6.5876	6.2201	-5.8032	1.1498	-1.408	0.333	0.333	0.333	0.333	0.333	0.333	0.333	0.333	0.333	0.333	0.333	0.333	0.333	0.333	0.333	0.333	0.333	0.333	0.333	6.327	1.7253	3.6948	12	194	0.673454547214209	0	1
"195"	12	65	3	-2	-3.25	0	3	-1	1	0.944	-2.269	-2.9211	-6.3663	-0.8767	-4.6287	4.8438	-15.9841	-10.2229	-0.5434	4.8385	4.2465	-4.9695	-3.6957	-6.1737	-3.2486	-4.7794	-6.1616	-5.7961	-1.779	0.8322	0.2121	0.3213	0.451	0.3644	0.2445	0.4214	0.3358	0.4847	0.4341	0.2079	0.2808	0.2262	0.2008	0.481	0.28	0.4434	0.3351	0.3603	0.2358	6.3205	1.6352	2.5781	12	195	-0.0576291128366364	0	1
"196"	12	64	3	-4	-6.5	0	5	-1	1	1.397	-11.4366	-12.8528	-7.3619	-11.4729	0.7684	-4.1484	-7.8622	-5.5719	-14.6563	-2.5729	-3.3461	0.5246	-5.2572	-10.7668	-0.7592	-1.9205	-2.0084	-14.1158	-9.8083	-4.6129	0.5106	0.3135	0.2567	0.2067	0.2413	0.5142	0.3617	0.2418	0.2115	0.4636	0.2004	0.2891	0.3567	0.5297	0.3799	0.3011	0.2422	0.4132	0.2919	6.3258	1.487	2.8811	12	196	0.334327080274825	0	1
"197"	12	59	3	-1	-1.625	1	8	1	0	2.476	1.5243	7.2106	2.1122	-3.0495	-0.6181	-6.6247	-3.2435	-8.5392	-7.8237	5.9779	5.0995	-8.2317	-7.0427	-4.4046	-6.391	-0.0529	4.3513	-0.8124	1.632	-1.8145	0.333	0.333	0.333	0.333	0.333	0.333	0.333	0.333	0.333	0.333	0.333	0.333	0.333	0.333	0.333	0.333	0.333	0.333	0.333	6.327	1.5413	4.0264	12	197	0.90664435482235	1	0
"198"	12	20	3	2	3.25	1	5	-1	0	1.537	0.9972	8.0894	1.7876	-6.1675	-0.502	3.5929	-0.6877	2.4922	4.1982	1.7487	-0.1078	0.1588	5.2761	5.2007	6.1271	14.5415	14.6748	1.8949	-0.3693	3.9004	0.333	0.333	0.333	0.333	0.333	0.333	0.333	0.333	0.333	0.333	0.333	0.333	0.333	0.333	0.333	0.333	0.333	0.333	0.333	6.327	1.6956	3.2545	12	198	0.429832464556459	0	1
"199"	12	35	3	4	6.5	1	3	1	1	0.877	6.67	17.3003	3.0906	11.6238	10.9607	2.7001	3.5185	4.8908	6.1721	6.0559	-0.4933	8.1585	9.7327	-1.371	5.9048	-1.6657	1.9829	10.1839	11.833	11.4125	0.333	0.333	0.333	0.333	0.333	0.333	0.333	0.333	0.333	0.333	0.333	0.333	0.333	0.333	0.333	0.333	0.333	0.333	0.333	6.327	1.5216	2.4109	12	199	-0.131248286609954	1	0
"200"	12	60	3	0	0	1	9	1	1	2.816	1.2157	-1.1263	12.9592	-0.4945	-3.7408	2.3331	-6.394	5.8668	-3.1299	-1.0151	-1.1955	-0.9569	1.3574	-0.3508	-5.3379	-7.6391	-2.978	-2.1071	7.7069	6.0516	0.333	0.333	0.333	0.333	0.333	0.333	0.333	0.333	0.333	0.333	0.333	0.333	0.333	0.333	0.333	0.333	0.333	0.333	0.333	6.327	1.6731	4.5001	12	200	1.0353174382958	1	0
"201"	12	50	3	-4	-6.5	0	5	-1	1	1.184	-2.3687	-18.5618	1.5545	-3.2582	-5.2105	-18.6376	-6.0026	-7.6317	-6.2479	-6.649	-4.1986	-8.203	-0.7623	-4.9672	-3.3649	-7.3903	-9.177	-4.8721	-10.5358	-5.4628	0.2784	0.3261	0.204	0.352	0.2043	0.4918	0.5249	0.3075	0.2584	0.2076	0.3249	0.4307	0.2112	0.2497	0.4958	0.436	0.3447	0.2275	0.4426	6.3183	1.6445	2.835	12	201	0.168898536461814	0	1
"202"	12	69	3	2	3.25	0	7	1	1	2.193	4.455	-1.2904	6.3849	-5.909	1.8659	4.7857	7.5292	6.985	3.9694	0.4785	-4.3014	3.6669	7.1034	0.8049	-5.9771	8.9402	8.8372	-0.31	5.6072	10.496	0.3124	0.4134	0.3126	0.3469	0.4481	0.2596	0.4261	0.2633	0.2132	0.2961	0.2183	0.3141	0.3882	0.2892	0.454	0.2191	0.4235	0.3427	0.3813	6.3222	1.4834	3.6937	12	202	0.785270469435751	1	0
"203"	12	19	3	1	1.625	1	5	1	1	1.472	2.5729	3.5591	-0.1522	-0.8282	-1.4689	2.4395	2.5095	-1.6481	-3.8615	11.1712	10.4072	1.9657	2.6692	1.6814	-1.2429	4.8674	-1.4143	-0.1467	-9.5444	9.7139	0.333	0.333	0.333	0.333	0.333	0.333	0.333	0.333	0.333	0.333	0.333	0.333	0.333	0.333	0.333	0.333	0.333	0.333	0.333	6.327	1.7204	3.2061	12	203	0.386622020306684	1	0
"204"	12	17	3	-1	-1.625	1	6	1	0	1.851	0.3557	3.2627	6.0084	-10.3219	-0.9643	-5.9959	-4.5635	-3.5548	0.097	-3.9184	-1.3896	7.0884	2.0645	-6.459	-3.3644	-5.6081	-4.5112	-4.4137	8.5579	-4.3789	0.333	0.333	0.333	0.333	0.333	0.333	0.333	0.333	0.333	0.333	0.333	0.333	0.333	0.333	0.333	0.333	0.333	0.333	0.333	6.327	1.5263	3.3848	12	204	0.61572603359136	1	0
"205"	12	68	3	1	1.625	0	8	-1	0	2.34	4.3727	5.8907	-2.832	-0.2469	4.0163	1.2315	5.8801	8.5258	4.7495	-0.2805	-1.874	7.7185	1.0957	-2.2401	-4.4772	12.1587	0.208	-4.7271	1.5939	-6.9452	0.257	0.3639	0.2476	0.3745	0.2147	0.3668	0.2234	0.3573	0.4194	0.2465	0.4535	0.2326	0.4488	0.4883	0.2069	0.4417	0.272	0.4773	0.2332	6.3253	1.4404	3.7908	12	205	0.85015092936961	0	1
"206"	12	14	3	4	6.5	0	6	1	1	1.908	9.5789	16.0874	0.3261	6.9458	-2.9194	5.9536	13.6743	2.9153	10.4629	2.8964	6.3311	0.8711	7.665	3.2781	5.0924	16.4695	5.524	2.2863	7.3628	8.4532	0.2451	0.3456	0.2417	0.3665	0.3118	0.4972	0.3321	0.2171	0.4655	0.3313	0.2897	0.4493	0.2238	0.3765	0.4368	0.2957	0.2076	0.3643	0.338	6.3355	1.6845	3.5922	12	206	0.646055573026095	1	0
"207"	12	16	3	-2	-3.25	1	6	-1	1	1.783	-2.8889	2.7567	-4.9768	-8.0503	-11.8592	7.4096	-1.8504	-9.4474	-8.0072	-0.4326	-4.0807	2.7246	-1.3198	-8.2623	-3.0247	-0.8615	2.2163	-8.0948	0.5235	-9.0766	0.333	0.333	0.333	0.333	0.333	0.333	0.333	0.333	0.333	0.333	0.333	0.333	0.333	0.333	0.333	0.333	0.333	0.333	0.333	6.327	1.4898	3.2841	12	207	0.578297338881003	0	1
"208"	12	61	3	1	1.625	1	8	1	1	2.581	5.9435	2.1388	-7.3649	4.2775	1.9559	3.9159	5.8783	2.5534	-3.879	11.196	-2.4486	1.245	-6.0051	0.9065	4.2554	-3.7203	-4.9068	3.8212	10.4028	2.1107	0.333	0.333	0.333	0.333	0.333	0.333	0.333	0.333	0.333	0.333	0.333	0.333	0.333	0.333	0.333	0.333	0.333	0.333	0.333	6.327	1.6469	4.2312	12	208	0.948176920736477	1	0
"209"	12	24	3	-1	-1.625	0	7	1	0	2.553	-5.2407	5.1734	5.6	-6.6263	6.5222	-0.991	-1.219	-3.103	-0.2151	-1.7418	3.7329	-9.8538	-4.6312	-2.4379	5.1971	-5.0272	-0.474	-0.928	-4.1439	-10.4001	0.4105	0.4642	0.3581	0.2142	0.2949	0.4274	0.5261	0.2644	0.3491	0.2296	0.351	0.2968	0.2107	0.2927	0.4222	0.3204	0.2864	0.2248	0.3871	6.3306	1.4069	3.9702	12	209	0.937269138259347	1	0
"210"	12	63	3	4	6.5	1	4	1	1	1.253	8.1045	10.6574	11.1413	2.3134	0.5969	5.9741	7.5824	4.9838	10.2494	10.9784	6.2558	3.4398	8.7266	-2.7098	7.9412	17.4503	-1.3229	-1.226	8.4216	10.5296	0.333	0.333	0.333	0.333	0.333	0.333	0.333	0.333	0.333	0.333	0.333	0.333	0.333	0.333	0.333	0.333	0.333	0.333	0.333	6.327	1.4415	2.704	12	210	0.225540675913931	1	0
"211"	12	7	4	4	6.5	1	4	1	1	1.015	3.5742	12.2868	1.2932	3.0264	12.0263	2.753	5.1438	2.3395	5.8282	3.4783	8.9802	4.7479	10.235	0.6905	12.5453	3.2677	2.6858	14.4078	17.1888	2.6997	0.333	0.333	0.333	0.333	0.333	0.333	0.333	0.333	0.333	0.333	0.333	0.333	0.333	0.333	0.333	0.333	0.333	0.333	0.333	6.327	1.6954	2.7159	12	211	0.0148886124937506	1	0
"212"	12	36	4	-4	-6.5	0	4	-1	1	1.265	-2.2427	-3.5864	-6.1649	-4.3544	-11.8064	-7.3115	-8.7178	-7.7057	-3.8812	-5.9837	-16.0692	-5.7378	-9.8343	-2.771	-7.043	4.5209	-1.4782	-17.1787	-4.5236	-9.8034	0.3029	0.4634	0.4208	0.2838	0.3789	0.272	0.4668	0.2076	0.2962	0.2512	0.2223	0.3867	0.2911	0.402	0.3299	0.3041	0.4416	0.2125	0.3893	6.3233	1.5208	2.7993	12	212	0.235072122179483	0	1
"213"	12	1	4	-4	-6.5	1	7	-1	1	2.094	-8.2126	0.6689	-13.0914	-3.426	-11.6391	-4.9867	-8.2051	-5.2915	-1.4371	-4.7859	-10.7748	-2.8119	5.076	-13.285	-6.3698	-12.3981	-3.0302	-12.8061	-6.7656	-7.4382	0.333	0.333	0.333	0.333	0.333	0.333	0.333	0.333	0.333	0.333	0.333	0.333	0.333	0.333	0.333	0.333	0.333	0.333	0.333	6.327	1.5036	3.6118	12	213	0.739076112448345	0	1
"214"	12	66	4	-1	-1.625	0	6	1	0	1.869	-2.6817	-2.3712	2.8345	-4.4133	1.5064	7.9954	-4.2028	-13.9503	-2.1024	4.2858	0.379	3.1221	0.7719	-0.7169	-8.5473	0.7854	-0.5531	-6.6912	-5.9935	-2.2349	0.3217	0.4792	0.3692	0.2094	0.3168	0.4921	0.2706	0.3508	0.4409	0.2012	0.2473	0.3223	0.2408	0.2058	0.2563	0.4768	0.4335	0.2029	0.4926	6.3303	1.5441	3.42	12	214	0.625403528473426	1	0
"215"	12	68	4	1	1.625	0	8	1	1	2.504	1.5171	8.8084	1.3483	-4.2979	-3.7303	7.7583	11.2968	-0.2424	-3.4607	-1.7358	2.3726	-4.7024	3.3187	-3.3564	2.2894	7.0847	-4.857	-0.1139	7.1087	4.4045	0.2772	0.4202	0.2613	0.4297	0.3166	0.2726	0.3723	0.2063	0.3426	0.4186	0.2051	0.4131	0.2047	0.3343	0.4188	0.223	0.3861	0.4606	0.3641	6.3273	1.4652	3.9717	12	215	0.917889453237852	1	0
"216"	12	23	4	-2	-3.25	0	6	1	0	2.031	1.4462	1.3515	-5.8836	-4.1899	4.1296	-1.1225	-10.9722	-4.8735	-7.6327	-2.26	-0.3325	1.7994	-0.2859	-2.0851	-14.6981	0.7203	-10.9718	-2.3789	-7.4147	1.4118	0.2232	0.3359	0.4413	0.2398	0.4347	0.36	0.2925	0.2005	0.5177	0.4605	0.414	0.2503	0.216	0.3433	0.2396	0.2955	0.4419	0.4083	0.2119	6.3268	1.5337	3.5653	12	216	0.708528282598248	1	0
"217"	12	24	4	-1	-1.625	0	5	-1	1	1.516	-3.2704	-7.7063	-3.695	6.9485	-2.4431	2.9184	-5.0647	-8.3724	3.3264	-4.0502	2.1276	-12.0769	-5.368	0.8892	1.381	-2.9977	0.2953	7.211	0.6704	-4.5958	0.2041	0.3052	0.3621	0.2187	0.5025	0.28	0.4473	0.2312	0.3559	0.266	0.2371	0.3377	0.4801	0.2409	0.3319	0.3606	0.2494	0.4943	0.4152	6.3202	1.5514	3.0671	12	217	0.41607528722018	0	1
"218"	12	59	4	-1	-1.625	1	4	-1	1	1.027	-1.2421	-4.1944	-0.2408	-3.2096	-7.7604	0.9436	0.3499	3.2276	-0.8485	-2.6833	-0.2444	-1.7163	-8.3811	5.7449	-9.9805	-4.3901	-8.4252	-2.4202	2.3272	10.1034	0.333	0.333	0.333	0.333	0.333	0.333	0.333	0.333	0.333	0.333	0.333	0.333	0.333	0.333	0.333	0.333	0.333	0.333	0.333	6.327	1.6687	2.6943	12	218	0.0266419309464211	0	1
"219"	12	18	4	0	0	1	10	1	1	3.306	0.9876	1.9478	-3.7788	4.0477	-5.4585	2.8641	-8.3869	-0.9328	-1.3902	10.1137	6.3617	4.8462	-0.7296	-1.4201	2.7515	-1.3004	-3.506	-6.9997	6.0416	-6.8632	0.333	0.333	0.333	0.333	0.333	0.333	0.333	0.333	0.333	0.333	0.333	0.333	0.333	0.333	0.333	0.333	0.333	0.333	0.333	6.327	1.5559	4.8732	12	219	1.19573899939883	1	0
"220"	12	29	4	-4	-6.5	1	5	-1	1	1.339	-6.1611	-9.8686	-11.6752	-8.4657	-5.6465	-16.095	-8.4444	-1.6063	-9.1784	-3.7017	-4.1349	-2.6435	-7.1933	-4.5433	2.4735	1.356	-10.6788	-9.2938	-14.6198	0.4747	0.333	0.333	0.333	0.333	0.333	0.333	0.333	0.333	0.333	0.333	0.333	0.333	0.333	0.333	0.333	0.333	0.333	0.333	0.333	6.327	1.5955	2.94	12	220	0.291923066709035	0	1
"221"	12	26	4	1	1.625	0	6	1	1	1.669	1.1242	0.408	11.765	7.7785	2.6538	-4.0518	4.1143	5.8866	3.7927	-7.1906	10.2952	0.3398	-5.2064	0.7559	0.0174	-1.0843	3.1405	-3.5523	3.1118	-1.4714	0.3788	0.3174	0.3784	0.2884	0.2209	0.4199	0.2809	0.2275	0.3364	0.4963	0.2927	0.3754	0.2702	0.4578	0.2311	0.405	0.2227	0.3217	0.4063	6.3279	1.5903	3.2529	12	221	0.512224644679698	1	0
"222"	12	67	4	0	0	0	9	1	0	2.643	-3.3099	4.9418	-5.0646	4.6682	1.1741	-5.018	-10.1514	1.1467	2.104	-5.0465	-1.6778	-0.4501	1.1762	2.0575	10.5694	-0.0979	8.8936	-1.0502	-6.6676	1.5936	0.3834	0.2667	0.5092	0.2743	0.2329	0.2935	0.3441	0.2418	0.3323	0.217	0.4066	0.2086	0.2942	0.4921	0.3403	0.2834	0.4614	0.3108	0.427	6.3195	1.615	4.277	12	222	0.971914635622152	1	0
"223"	12	22	4	-4	-6.5	0	5	-1	1	1.569	-4.8175	-3.3777	-14.9508	2.3883	-3.8185	-8.9874	-6.1283	-12.7238	-2.9356	-2.5094	-8.7489	2.8755	-3.8923	-7.2902	-3.656	-8.9574	-7.6608	-12.4676	-8.1598	-15.2737	0.3451	0.3188	0.2633	0.2097	0.5327	0.2386	0.3825	0.2167	0.3711	0.5109	0.2623	0.4092	0.3222	0.2154	0.2422	0.2863	0.41	0.3693	0.4152	6.3214	1.4658	3.0527	12	223	0.450438473750896	0	1
"224"	12	12	4	1	1.625	0	11	1	1	3.136	0.2773	-8.1329	2.9377	8.4389	6.3403	1.0476	6.746	11.5013	6.4367	4.3078	-4.4302	-3.7816	0.4472	6.8875	0.6643	0.3605	-1.493	1.541	-1.9894	-4.6635	0.3127	0.2504	0.4194	0.3919	0.227	0.3092	0.3464	0.2324	0.3754	0.2272	0.3488	0.323	0.2383	0.3185	0.2004	0.4415	0.5302	0.4831	0.3532	6.3292	1.6639	4.8199	12	224	1.14294810248816	1	0
"225"	12	40	4	1	1.625	0	13	1	1	4.002	-1.5075	12.6003	-0.0581	-2.0894	-11.8414	4.127	6.8726	-1.4254	3.631	-0.5971	-0.8454	4.0889	-1.5853	2.9656	-0.7864	6.2116	7.3112	3.0934	0.6048	1.6824	0.2156	0.3264	0.4188	0.2166	0.2679	0.3928	0.2952	0.4571	0.236	0.3093	0.4626	0.3025	0.4851	0.3196	0.391	0.337	0.2896	0.3829	0.2127	6.3187	1.4672	5.4863	12	225	1.38679423616154	1	0
"226"	12	43	4	-4	-6.5	1	4	-1	1	1.079	-7.2574	-17.1455	-5.2551	-16.0554	-8.3281	-6.0104	-2.899	-9.6695	-2.9244	-4.1299	-4.2705	-11.1022	-2.5396	-2.5678	3.4892	-10.9112	-5.1796	-7.6641	-1.2983	-9.5685	0.333	0.333	0.333	0.333	0.333	0.333	0.333	0.333	0.333	0.333	0.333	0.333	0.333	0.333	0.333	0.333	0.333	0.333	0.333	6.327	1.5048	2.596	12	226	0.0760346862759976	0	1
"227"	12	15	4	-4	-6.5	1	4	-1	1	1.077	-4.2621	-5.1769	-7.6173	-10.1863	-9.7787	-2.5001	2.3356	-7.9855	-8.6106	-14.7951	-1.451	2.8043	-7.0218	-10.4733	-4.3198	2.0854	-13.0524	-12.0451	-7.9131	-8.284	0.333	0.333	0.333	0.333	0.333	0.333	0.333	0.333	0.333	0.333	0.333	0.333	0.333	0.333	0.333	0.333	0.333	0.333	0.333	6.327	1.6514	2.7443	12	227	0.0741793981742515	0	1
"228"	12	51	4	-2	-3.25	0	6	-1	1	1.557	1.5284	5.0353	-7.2323	-9.451	3.5144	-12.4076	-2.6393	-4.6002	-3.1064	-1.6899	-5.5599	5.5652	-4.3425	-0.6624	-7.0932	-1.8877	-0.9273	-10.4114	-1.5865	-7.6457	0.2383	0.3558	0.3221	0.2875	0.2171	0.2925	0.2415	0.3448	0.4005	0.4478	0.2868	0.4399	0.2946	0.4533	0.2075	0.4502	0.3101	0.4975	0.2434	6.3311	1.4672	3.0248	12	228	0.442760892851861	0	1
"229"	12	63	4	4	6.5	1	10	1	1	3.027	10.7856	13.1128	5.0825	-2.8507	5.6856	8.2532	13.4056	8.1153	12.9277	2.897	0.2352	4.3681	2.0392	4.5665	4.4784	-1.1644	12.8296	11.2767	9.3839	4.305	0.333	0.333	0.333	0.333	0.333	0.333	0.333	0.333	0.333	0.333	0.333	0.333	0.333	0.333	0.333	0.333	0.333	0.333	0.333	6.327	1.5827	4.6116	12	229	1.10757203003958	1	0
"230"	12	33	4	1	1.625	1	7	-1	0	2.148	0.4858	2.2523	0.3471	-8.7447	-11.4282	5.1622	4.3187	3.2306	6.6253	6.8226	-1.0036	6.0921	7.739	-0.943	2.6693	0.2924	-1.067	-0.3436	3.9981	5.9395	0.333	0.333	0.333	0.333	0.333	0.333	0.333	0.333	0.333	0.333	0.333	0.333	0.333	0.333	0.333	0.333	0.333	0.333	0.333	6.327	1.6825	3.8319	12	230	0.764537176646618	0	1
"231"	12	20	4	2	3.25	1	8	1	1	2.345	-0.5062	6.6649	2.4354	-1.9504	10.486	-0.7097	15.4253	4.981	9.1051	-1.5761	-2.8948	4.7083	-2.0278	0.2355	5.1778	-1.1917	5.2562	9.3042	3.2329	-0.8708	0.333	0.333	0.333	0.333	0.333	0.333	0.333	0.333	0.333	0.333	0.333	0.333	0.333	0.333	0.333	0.333	0.333	0.333	0.333	6.327	1.6656	4.0128	12	231	0.852285401898243	1	0
"232"	12	38	4	-1	-1.625	0	5	-1	1	1.67	0.6684	-0.8893	-10.7995	-1.239	9.3981	-1.9878	-2.231	2.9118	5.0736	-4.4689	-0.4578	-2.5727	-1.8927	-2.5653	-7.2038	-11.4787	-5.1762	4.0901	-0.1332	-1.4879	0.2747	0.4614	0.4028	0.3324	0.2529	0.4217	0.3786	0.3095	0.3548	0.2511	0.324	0.292	0.3412	0.4109	0.2362	0.336	0.3778	0.3393	0.2375	6.3348	1.5883	3.2536	12	232	0.512823626428664	0	1
"233"	12	42	4	4	6.5	0	4	1	1	1.306	6.9723	8.5751	5.1165	0.0957	5.5313	13.6887	6.1486	0.5939	4.6043	18.458	11.8098	4.6991	3.9309	12.5185	3.2878	1.6166	8.6947	5.828	9.4209	-0.7964	0.2283	0.379	0.4728	0.2487	0.3444	0.2883	0.3381	0.2461	0.4994	0.2795	0.4662	0.2614	0.5057	0.3313	0.218	0.337	0.3057	0.2279	0.3403	6.3181	1.7325	3.0403	12	233	0.266969030854239	1	0
"234"	12	16	4	-2	-3.25	1	7	-1	1	2.119	-1.0718	8.8972	0.4685	-6.0095	-5.8318	-8.8616	-0.0955	-9.0577	-8.2352	-1.5929	-4.8046	-7.7325	1.9434	-10.3817	-4.4624	-2.3084	1.1499	-1.2831	-7.7392	2.4194	0.333	0.333	0.333	0.333	0.333	0.333	0.333	0.333	0.333	0.333	0.333	0.333	0.333	0.333	0.333	0.333	0.333	0.333	0.333	6.327	1.5629	3.6869	12	234	0.750944279286162	0	1
"235"	12	50	4	-4	-6.5	0	10	-1	1	3.37	-9.6706	-0.6133	3.2851	-4.0345	0.1429	-10.0712	-13.3516	-7.1026	-8.3155	-11.4875	-0.068	-4.0521	-7.8461	-12.3681	-6.5026	-2.6972	-5.2334	-13.7034	-11.4119	-5.2008	0.3348	0.2669	0.393	0.3543	0.2245	0.3535	0.4295	0.3484	0.2784	0.415	0.4866	0.2019	0.2607	0.3416	0.2738	0.4177	0.2204	0.3034	0.4126	6.3173	1.6088	4.9872	12	235	1.21491274436427	0	1
"236"	12	4	4	0	0	1	8	1	1	2.487	-2.605	3.348	-13.145	6.8362	-4.5786	-0.8951	2.6602	1.0333	-1.5167	5.3282	4.1199	3.3461	-8.1018	0.2189	5.0163	2.204	2.0831	-4.3097	4.6411	-4.2463	0.333	0.333	0.333	0.333	0.333	0.333	0.333	0.333	0.333	0.333	0.333	0.333	0.333	0.333	0.333	0.333	0.333	0.333	0.333	6.327	1.6204	4.121	12	236	0.911077164821268	1	0
"237"	12	35	4	4	6.5	1	4	1	1	1.318	5.1891	16.1712	7.0734	7.5123	-6.5322	2.3041	8.9155	8.7212	-0.9036	8.9176	7.1026	2.054	5.3966	12.1827	7.3679	10.9897	4.9277	13.5964	5.0669	5.0276	0.333	0.333	0.333	0.333	0.333	0.333	0.333	0.333	0.333	0.333	0.333	0.333	0.333	0.333	0.333	0.333	0.333	0.333	0.333	6.327	1.4162	2.7518	12	237	0.276115436080316	1	0
"238"	12	62	4	2	3.25	1	4	1	1	1.17	8.2393	0.6092	0.0939	3.4626	4.4184	0.1068	-0.8789	4.1865	5.9783	0.2228	1.9051	6.2066	8.4811	2.6077	-2.5869	4.197	13.5065	2.3031	-9.1543	9.3473	0.333	0.333	0.333	0.333	0.333	0.333	0.333	0.333	0.333	0.333	0.333	0.333	0.333	0.333	0.333	0.333	0.333	0.333	0.333	6.327	1.5483	2.7374	12	238	0.157003748809665	1	0
"239"	12	9	4	-2	-3.25	0	4	-1	1	1.007	-6.2419	-6.4773	-2.3577	-0.5214	-7.9399	-8.4596	9.5661	0.1058	-2.2268	-5.4441	0.917	-3.9655	-8.7254	-2.6376	3.1376	-9.4663	-9.3898	0.4065	1.8876	-7.6266	0.3979	0.2464	0.3079	0.413	0.4792	0.2828	0.3294	0.3806	0.2609	0.3403	0.5217	0.4235	0.298	0.2241	0.3302	0.2	0.3263	0.2619	0.3128	6.337	1.4054	2.4243	12	239	0.00697561373642514	0	1
"240"	12	49	4	4	6.5	1	8	1	1	2.392	11.4529	0.5883	7.1746	-0.7116	7.133	6.0089	-0.6777	8.6874	5.5394	6.4344	9.1049	10.1996	7.4594	-1.5194	12.3454	12.6	10.4925	14.3068	0.7487	0.8717	0.333	0.333	0.333	0.333	0.333	0.333	0.333	0.333	0.333	0.333	0.333	0.333	0.333	0.333	0.333	0.333	0.333	0.333	0.333	6.327	1.6681	4.0764	12	240	0.872129836088385	1	0
"241"	12	41	4	2	3.25	0	5	1	1	1.171	3.4459	4.5714	-1.1127	6.349	6.4818	2.7764	-1.0967	0.1548	8.527	-8.1137	-1.3362	6.7219	4.5937	3.7639	9.848	2.2582	-2.1476	4.5285	1.5288	14.6311	0.2668	0.3373	0.232	0.2877	0.3507	0.4991	0.3423	0.2168	0.2428	0.3247	0.3705	0.2793	0.3201	0.443	0.2065	0.2868	0.3407	0.5283	0.4543	6.3295	1.4027	2.5885	12	241	0.15785808461558	1	0
"242"	12	61	4	1	1.625	1	4	1	1	1.258	-0.3777	5.1034	-2.1192	-6.439	-0.4681	-5.8588	3.675	7.6058	10.8199	0.827	3.8301	11.9637	-4.9246	-2.4143	2.4753	0.1261	5.9924	3.2249	2.1675	-1.9836	0.333	0.333	0.333	0.333	0.333	0.333	0.333	0.333	0.333	0.333	0.333	0.333	0.333	0.333	0.333	0.333	0.333	0.333	0.333	6.327	1.7023	2.9754	12	242	0.229523158278249	1	0
"243"	12	65	4	-2	-3.25	0	7	1	0	2.088	1.1444	-3.3177	-4.8947	-14.297	2.3792	-2.3593	-8.1599	5.076	-1.9993	-5.2975	-7.0082	-2.7304	-0.1327	2.0643	-3.1194	-9.8241	-6.9837	4.7535	-5.3029	-4.898	0.388	0.4664	0.2271	0.2724	0.3756	0.2258	0.2815	0.2306	0.4778	0.3026	0.2535	0.4147	0.3804	0.2636	0.3041	0.2169	0.2648	0.4698	0.5159	6.3317	1.6278	3.7223	12	243	0.736206670020392	1	0
"244"	12	64	4	-4	-6.5	0	7	1	0	2.161	-3.2141	1.1321	-10.2861	-1.3367	1.1283	4.8564	-8.2252	-7.2134	-10.4681	-14.7946	-11.8451	-6.3883	-10.345	-8.6741	-7.4536	-12.509	-7.1786	-3.1052	-8.3394	-5.877	0.2097	0.2674	0.3815	0.5181	0.2971	0.4782	0.3728	0.4877	0.323	0.2107	0.2896	0.3181	0.2221	0.2561	0.3256	0.26	0.2901	0.3678	0.4463	6.322	1.6558	3.8283	12	244	0.770571077524749	1	0
"245"	12	27	4	2	3.25	0	7	1	1	1.845	-0.388	-4.6493	2.0698	6.5327	2.1556	0.6886	-4.6277	2.1204	1.6002	7.0019	5.7044	-4.2002	1.7633	11.507	7.1012	13.7122	5.6821	7.5448	5.0352	0.5717	0.2802	0.2497	0.2755	0.4087	0.2145	0.2649	0.2942	0.4886	0.4317	0.3347	0.5271	0.4003	0.2699	0.3262	0.2306	0.47	0.2959	0.3353	0.2344	6.3325	1.4308	3.2794	12	245	0.612479277492491	1	0
"246"	12	5	4	1	1.625	1	6	-1	0	1.919	0.1967	-1.0816	-6.7904	1.6168	-0.5256	2.3205	-3.4671	-3.945	0.0758	0.2754	14.3355	3.2969	-0.0528	7.4502	-2.0675	7.2466	-3.5837	2.4193	3.8793	9.5112	0.333	0.333	0.333	0.333	0.333	0.333	0.333	0.333	0.333	0.333	0.333	0.333	0.333	0.333	0.333	0.333	0.333	0.333	0.333	6.327	1.4843	3.4025	12	246	0.651804217025563	0	1
"247"	12	6	4	2	3.25	1	3	1	1	0.865	7.5734	17.0005	-1.661	7.516	8.1292	4.5158	3.3134	-5.1842	7.8762	1.8072	1.3832	-1.2218	3.3656	4.2173	-2.3906	0.9892	3.6433	-2.1726	0.7363	4.8596	0.333	0.333	0.333	0.333	0.333	0.333	0.333	0.333	0.333	0.333	0.333	0.333	0.333	0.333	0.333	0.333	0.333	0.333	0.333	6.327	1.5491	2.4155	12	247	-0.145025772050258	1	0
"248"	12	69	4	2	3.25	0	13	-1	0	3.915	-1.376	1.132	6.127	2.5061	-8.0449	8.7357	3.8033	-2.5826	0.8652	6.1741	4.2126	-1.6963	0.3662	2.5903	12.4146	8.6707	4.1888	12.9662	0.2243	3.3397	0.21	0.2824	0.227	0.289	0.5224	0.3781	0.2041	0.2495	0.4688	0.353	0.2392	0.4666	0.2376	0.4673	0.2705	0.204	0.4842	0.2657	0.5062	6.3256	1.6249	5.5489	12	248	1.36481532944277	0	1
"249"	12	17	4	-1	-1.625	1	4	-1	1	1.305	-0.9118	-7.8238	3.5243	-8.5928	-9.0218	-1.6375	-1.0732	-4.1149	3.1549	-11.1832	0.3652	2.963	6.4711	-2.5991	-6.7303	-3.0646	4.8361	1.7217	-0.9096	1.2047	0.333	0.333	0.333	0.333	0.333	0.333	0.333	0.333	0.333	0.333	0.333	0.333	0.333	0.333	0.333	0.333	0.333	0.333	0.333	6.327	1.5783	2.9056	12	249	0.266203040774657	0	1
"250"	12	34	4	2	3.25	1	5	1	1	1.604	5.0127	2.092	3.2188	5.7704	8.0007	4.806	3.6549	-0.5299	-7.3592	1.2163	-2.4365	5.5202	5.2891	6.4869	8.941	-6.6278	-0.9072	6.0519	12.7407	4.1054	0.333	0.333	0.333	0.333	0.333	0.333	0.333	0.333	0.333	0.333	0.333	0.333	0.333	0.333	0.333	0.333	0.333	0.333	0.333	6.327	1.532	3.155	12	250	0.472500509444323	1	0
"251"	12	19	4	1	1.625	1	4	1	1	1.221	2.2489	2.052	7.24	9.1055	4.834	2.6128	-0.8489	-7.4396	-3.5941	6.4462	-3.5554	-0.6371	-5.6353	-0.822	-2.0161	8.3819	1.8619	9.8933	-3.1132	3.9858	0.333	0.333	0.333	0.333	0.333	0.333	0.333	0.333	0.333	0.333	0.333	0.333	0.333	0.333	0.333	0.333	0.333	0.333	0.333	6.327	1.6181	2.8549	12	251	0.199670195128568	1	0
"252"	12	28	4	4	6.5	0	3	1	1	0.886	9.402	5.1588	10.3059	2.1245	9.4091	11.8549	12.936	14.7851	13.4043	4.0698	3.8711	3.5553	1.1597	0.1242	11.4771	0.3725	-2.7937	3.6581	8.4517	6.4971	0.4513	0.3076	0.3956	0.3222	0.2474	0.4459	0.384	0.4211	0.329	0.2449	0.3963	0.2582	0.447	0.2772	0.2137	0.2456	0.2728	0.3956	0.2737	6.329	1.6305	2.5204	12	252	-0.121038328377056	1	0
"253"	12	13	4	2	3.25	0	8	1	1	2.081	-0.7299	6.7116	6.3446	9.9173	1.1869	2.5879	8.5972	4.3556	-3.4077	3.0108	0.4626	2.5469	9.0855	-3.5545	6.4106	-7.9126	8.2891	6.4775	6.7438	-2.3898	0.3223	0.2015	0.2528	0.2883	0.433	0.2876	0.2077	0.3901	0.499	0.4474	0.4101	0.2273	0.4886	0.2694	0.4182	0.3299	0.2394	0.3541	0.2568	6.3235	1.724	3.8151	12	253	0.732848547411497	1	0
"254"	12	14	4	4	6.5	0	5	1	1	1.577	6.4445	9.4084	-5.2694	12.1806	10.908	4.4892	12.0423	0.6778	6.1911	6.6312	3.4584	1.2693	4.898	12.3715	9.1911	6.6458	-2.366	8.2048	12.5119	8.7484	0.331	0.2719	0.3664	0.4823	0.5167	0.2133	0.2929	0.3738	0.2375	0.4841	0.2493	0.418	0.3456	0.2635	0.2989	0.3891	0.281	0.2011	0.3171	6.3337	1.6254	3.2107	12	254	0.455524307980901	1	0
"255"	12	32	4	0	0	1	5	1	1	1.356	0.5562	-3.0248	-1.7853	-0.5169	-1.3095	-3.6698	9.141	-4.4684	-2.0513	-1.4037	-5.482	-3.5601	-2.2305	-2.7554	1.8233	-1.568	0.4411	14.506	0.1491	9.031	0.333	0.333	0.333	0.333	0.333	0.333	0.333	0.333	0.333	0.333	0.333	0.333	0.333	0.333	0.333	0.333	0.333	0.333	0.333	6.327	1.4813	2.8397	12	255	0.304539189518204	1	0
"256"	12	2	4	-2	-3.25	1	8	-1	1	2.428	0.0152	-7.3367	4.4704	-6.6705	-5.4988	-8.7498	-6.6405	-8.8928	0.2249	-3.4692	5.0224	-7.5702	4.2656	-4.0399	-2.8342	1.7398	-12.3869	1.0436	-1.7917	-6.3871	0.333	0.333	0.333	0.333	0.333	0.333	0.333	0.333	0.333	0.333	0.333	0.333	0.333	0.333	0.333	0.333	0.333	0.333	0.333	6.327	1.416	3.8452	12	256	0.887067873197252	0	1
"257"	12	3	4	-1	-1.625	1	6	1	0	1.674	-0.8113	-0.344	1.3148	5.0146	-3.0154	0.4498	3.5645	-5.7336	3.7001	2.0029	-4.1909	-6.8779	-7.1071	-5.4663	1.8029	4.489	-3.4186	-13.0884	3.2905	-9.303	0.333	0.333	0.333	0.333	0.333	0.333	0.333	0.333	0.333	0.333	0.333	0.333	0.333	0.333	0.333	0.333	0.333	0.333	0.333	6.327	1.5296	3.2077	12	257	0.515215972067284	1	0
"258"	12	48	4	2	3.25	1	8	1	1	2.558	3.2797	0.2644	-2.1482	4.7064	-5.6418	-0.1921	4.8567	6.0262	8.566	-0.9013	3.0994	5.5461	5.1963	5.3379	12.9212	-3.8168	6.2417	10.4147	-3.6447	5.975	0.333	0.333	0.333	0.333	0.333	0.333	0.333	0.333	0.333	0.333	0.333	0.333	0.333	0.333	0.333	0.333	0.333	0.333	0.333	6.327	1.6967	4.259	12	258	0.939225703156651	1	0
"259"	12	47	4	1	1.625	1	6	1	1	1.676	3.9038	1.5496	0.3171	1.7747	-0.9998	-2.7701	1.9695	14.7048	8.5917	-1.5175	-7.4911	4.491	-6.7093	1.2927	0.7589	3.2044	4.2955	3.9226	4.6378	-1.5638	0.333	0.333	0.333	0.333	0.333	0.333	0.333	0.333	0.333	0.333	0.333	0.333	0.333	0.333	0.333	0.333	0.333	0.333	0.333	6.327	1.5844	3.2604	12	259	0.516410002059891	1	0
"260"	12	45	4	-1	-1.625	1	7	-1	1	2.009	3.2518	-11.4911	-2.8186	-10.3854	-4.2627	1.5307	1.4322	-5.2757	-8.259	-2.9636	-3.8627	2.5259	3.0162	0.5061	3.2126	-4.2264	-2.6901	-1.408	8.3633	1.9368	0.333	0.333	0.333	0.333	0.333	0.333	0.333	0.333	0.333	0.333	0.333	0.333	0.333	0.333	0.333	0.333	0.333	0.333	0.333	6.327	1.6352	3.6429	12	260	0.697637085832797	0	1
"261"	12	39	4	0	0	0	8	-1	0	2.444	3.8596	-0.1135	5.8429	4.3864	-6.8268	-1.2819	-1.7483	0.5247	2.0541	-6.4275	-5.8165	-0.04	8.9804	-7.0451	1.6783	5.3241	4.6234	-8.5878	-0.4689	2.6577	0.4264	0.3223	0.2818	0.1999	0.4474	0.3673	0.2502	0.3215	0.2561	0.2892	0.257	0.5278	0.3147	0.3518	0.2757	0.3328	0.4386	0.2926	0.3819	6.335	1.4587	3.9111	12	261	0.893636041309349	0	1
"262"	12	25	4	0	0	0	9	-1	1	2.564	0.7783	-0.4462	-5.9446	-6.6886	2.2561	-11.046	4.4785	-1.3979	7.7646	-0.3251	-7.8892	-1.1346	-1.1561	5.2557	-1.5703	2.1502	8.3957	2.41	4.6308	0.8791	0.3515	0.3163	0.2318	0.3283	0.2592	0.2898	0.2067	0.3317	0.4315	0.3495	0.2402	0.2946	0.455	0.2222	0.3385	0.5152	0.437	0.4789	0.2539	6.332	1.4925	4.065	12	262	0.941568539058424	0	1
"263"	12	30	4	-2	-3.25	1	3	-1	1	0.956	-2.8739	-2.8263	-3.0695	-12.7352	-0.5565	1.3238	-2.6084	-4.2793	7.9486	-9.3884	-0.5076	-12.074	0.5221	0.5094	-4.6002	-5.0611	-5.9496	0.5534	-0.8389	-10.0145	0.333	0.333	0.333	0.333	0.333	0.333	0.333	0.333	0.333	0.333	0.333	0.333	0.333	0.333	0.333	0.333	0.333	0.333	0.333	6.327	1.4349	2.4064	12	263	-0.0449973659307358	0	1
"264"	12	8	4	-4	-6.5	0	5	-1	1	1.392	-5.6482	-0.2382	-2.2598	-4.4003	-0.0282	-9.1629	-12.6042	-12.4847	-4.2512	-4.6568	-7.3654	-8.1423	-10.3926	-9.8125	-11.014	-8.7853	-11.9999	-3.3831	7.0043	-10.3627	0.4767	0.2103	0.3662	0.2716	0.3523	0.3196	0.2735	0.2128	0.2851	0.4207	0.3043	0.4094	0.2889	0.2521	0.3389	0.3722	0.4602	0.3105	0.4043	6.3296	1.4699	2.876	12	264	0.330741561912228	0	1
"265"	12	54	4	1	1.625	0	8	-1	0	2.625	6.004	-1.3084	-0.7562	-0.5053	-7.3855	10.6244	-2.1452	-0.4685	3.1757	-0.5137	3.3355	9.7788	-4.9611	2.5407	8.7004	-3.2682	2.9139	2.9739	-4.27	7.6037	0.2559	0.438	0.3426	0.4991	0.2723	0.3075	0.2389	0.29	0.2399	0.4531	0.2551	0.3073	0.3542	0.4239	0.368	0.2712	0.2444	0.4049	0.3594	6.3256	1.6781	4.3097	12	265	0.965080896043587	0	1
"266"	12	10	4	-1	-1.625	0	10	1	0	3.158	-5.3979	2.1372	-6.5853	-6.3239	7.1467	-8.1823	2.8537	-2.6254	2.7868	-3.4462	-10.2573	-1.372	4.4734	2.7303	1.9157	-6.2496	2.4555	1.3251	-8.9293	0.6867	0.2002	0.3761	0.4503	0.2973	0.3529	0.4866	0.3728	0.4137	0.2042	0.3171	0.4212	0.2954	0.4983	0.3504	0.2412	0.3371	0.2238	0.2703	0.2199	6.3287	1.4562	4.6249	12	266	1.14993891583345	1	0
"267"	12	52	4	-1	-1.625	0	6	-1	1	1.693	2.2205	1.1791	-7.7334	-6.0886	6.1666	8.0197	1.9266	-5.9671	-5.0522	8.1294	-5.9969	-4.1563	-1.4703	-5.0745	-2.8377	-3.0333	0.2487	-8.127	0.5415	-4.6615	0.2601	0.3733	0.2436	0.4942	0.2488	0.3773	0.2387	0.3264	0.5015	0.2107	0.2599	0.29	0.5033	0.2781	0.4245	0.2211	0.3409	0.436	0.3022	6.3306	1.4333	3.1267	12	267	0.526502103150998	0	1
"268"	12	46	4	0	0	1	4	-1	1	1.054	2.185	0.7857	1.174	-3.2124	2.5237	-3.7772	-12.4053	10.2759	-2.4919	-1.0219	1.5259	0.0233	8.7747	-3.2231	0.0643	0.2916	5.2147	-4.1738	2.8467	-4.7454	0.333	0.333	0.333	0.333	0.333	0.333	0.333	0.333	0.333	0.333	0.333	0.333	0.333	0.333	0.333	0.333	0.333	0.333	0.333	6.327	1.7157	2.7719	12	268	0.0525924501191706	0	1
"269"	12	56	4	4	6.5	0	6	1	1	1.725	5.4589	17.1065	9.1691	2.2138	10.2317	1.6332	6.9365	10.3598	0.032	16.2081	6.7069	7.6745	0.6991	3.4724	4.0766	9.2748	7.1958	3.1271	9.4061	-0.5885	0.2511	0.2141	0.4901	0.2529	0.2037	0.4854	0.3375	0.2992	0.4104	0.264	0.4905	0.2605	0.333	0.2679	0.3689	0.2859	0.3444	0.4867	0.2882	6.3343	1.4597	3.1924	12	269	0.545227050483323	1	0
"270"	12	60	4	0	0	1	9	1	0	2.774	1.3249	4.7479	-0.6741	-5.1505	-5.0959	8.3491	6.5381	-0.6001	2.0749	-5.1855	13.5132	-3.0274	-3.9014	0.6784	-2.7188	-3.7703	-1.6786	-4.1146	-0.3958	0.3965	0.333	0.333	0.333	0.333	0.333	0.333	0.333	0.333	0.333	0.333	0.333	0.333	0.333	0.333	0.333	0.333	0.333	0.333	0.333	6.327	1.6803	4.4585	12	270	1.02029032189264	1	0
"271"	12	11	4	0	0	0	4	-1	0	1.258	-2.3842	-2.6194	-0.5489	2.9416	-0.8756	-9.9835	11.0961	6.0895	-3.0269	7.1364	2.3842	-1.3078	-5.5726	-1.2919	-2.8896	2.3146	2.9199	-1.4745	4.1698	-7.1754	0.3614	0.2966	0.226	0.394	0.2725	0.2254	0.4565	0.3009	0.5309	0.4635	0.4284	0.5144	0.2082	0.2496	0.34	0.2563	0.2181	0.3264	0.2529	6.3218	1.6198	2.8752	12	271	0.229523158278249	0	1
"272"	12	21	4	4	6.5	1	5	1	1	1.499	4.5321	1.0332	13.0011	6.5548	2.3107	9.7167	5.3178	8.9336	-1.0277	14.2974	9.6323	11.5019	8.2879	10.8781	-2.2512	1.6924	7.7656	12.2309	-0.9969	7.7022	0.333	0.333	0.333	0.333	0.333	0.333	0.333	0.333	0.333	0.333	0.333	0.333	0.333	0.333	0.333	0.333	0.333	0.333	0.333	6.327	1.4114	2.9167	12	272	0.404798219120461	1	0
"273"	12	57	4	-4	-6.5	1	5	-1	1	1.437	-9.4148	5.356	-10.6216	-19.1575	-8.4459	-6.2018	-9.8129	-0.5321	-6.987	-6.3072	0.4053	-6.7855	-6.3876	-8.0342	-6.5604	-4.1285	-9.0335	-9.2815	-4.5407	-2.5769	0.333	0.333	0.333	0.333	0.333	0.333	0.333	0.333	0.333	0.333	0.333	0.333	0.333	0.333	0.333	0.333	0.333	0.333	0.333	6.327	1.7299	3.1708	12	273	0.362557607096888	0	1
"274"	12	70	4	4	6.5	0	6	1	1	1.598	7.3342	0.9438	3.4798	8.6258	5.243	6.9074	-4.4014	5.1788	7.0163	11.7379	7.4106	9.5776	9.1931	10.9636	1.2361	11.2133	4.0889	0.9292	3.6157	19.1592	0.2561	0.328	0.2345	0.2079	0.4839	0.2541	0.428	0.306	0.2122	0.3758	0.4724	0.2646	0.5075	0.4334	0.3161	0.2178	0.3943	0.346	0.2942	6.3328	1.6653	3.2817	12	274	0.468752847344083	1	0
"275"	12	58	4	-2	-3.25	1	9	1	0	2.942	-6.5081	2.5226	0.7003	-3.0617	-3.1665	3.4565	-6.4185	6.1102	3.031	-2.4835	-2.5488	-3.1616	-12.4503	-9.928	1.6606	-7.6145	-7.6266	-8.4683	-5.9749	-2.9338	0.333	0.333	0.333	0.333	0.333	0.333	0.333	0.333	0.333	0.333	0.333	0.333	0.333	0.333	0.333	0.333	0.333	0.333	0.333	6.327	1.6322	4.5926	12	275	1.07908962217925	1	0
"276"	12	55	4	2	3.25	0	8	1	1	2.943	6.9556	-0.4016	8.8821	5.4729	-0.2781	1.5659	-1.4675	0.3781	3.8772	-0.6151	7.1279	1.7876	6.1917	12.6682	-0.5129	-8.5544	0.2139	7.2208	4.5183	11.6905	0.3858	0.479	0.2159	0.4487	0.4131	0.4977	0.2937	0.2549	0.4965	0.2246	0.3476	0.2048	0.3195	0.3499	0.2481	0.3973	0.2381	0.2982	0.2047	6.3182	1.6457	4.6106	12	276	1.07942946925134	1	0
"277"	12	31	4	-1	-1.625	1	6	-1	1	1.861	-3.637	-5.1196	2.6207	2.6262	1.6867	2.541	-1.8598	-2.3028	-8.6411	-7.2677	-4.7204	-1.0727	4.6547	-6.5227	1.8318	0.8218	0.6387	-12.2429	-5.0301	7.4525	0.333	0.333	0.333	0.333	0.333	0.333	0.333	0.333	0.333	0.333	0.333	0.333	0.333	0.333	0.333	0.333	0.333	0.333	0.333	6.327	1.5582	3.4282	12	277	0.621113977660114	0	1
"278"	12	44	4	-2	-3.25	1	5	-1	1	1.63	-7.5388	9.9871	2.4865	-9.1755	-2.5438	-9.9263	-1.1177	-3.4243	-1.1027	-8.6426	0.4344	-2.1422	-5.8436	-0.5916	0.763	-12.8704	-3.6086	-3.1983	-4.2099	-0.878	0.333	0.333	0.333	0.333	0.333	0.333	0.333	0.333	0.333	0.333	0.333	0.333	0.333	0.333	0.333	0.333	0.333	0.333	0.333	6.327	1.4158	3.0642	12	278	0.488580014818671	0	1
"279"	12	37	4	-2	-3.25	0	3	-1	1	0.917	-7.5168	-7.4355	-5.4719	-6.012	-8.1916	-3.9772	-1.1083	11.2945	-4.3982	0.9641	1.4814	2.3843	0.1509	-5.0328	-7.3021	-0.671	-2.6543	-2.3195	-9.2429	-9.287	0.208	0.4119	0.304	0.4459	0.3302	0.2969	0.4269	0.3834	0.2456	0.2104	0.5242	0.2641	0.3071	0.2426	0.3385	0.4805	0.2779	0.3939	0.2266	6.3185	1.5088	2.4348	12	279	-0.0866478067256722	0	1
