"subNo"	"index"	"block"	"level"	"mean"	"periodicity"	"nEvents"	"answer"	"isCorrect"	"rt"	"s1"	"s2"	"s3"	"s4"	"s5"	"s6"	"s7"	"s8"	"s9"	"s10"	"s11"	"s12"	"s13"	"s14"	"s15"	"s16"	"s17"	"s18"	"s19"	"s20"	"t1"	"t2"	"t3"	"t4"	"t5"	"t6"	"t7"	"t8"	"t9"	"t10"	"t11"	"t12"	"t13"	"t14"	"t15"	"t16"	"t17"	"t18"	"t19"	"seqDuration"	"startInterval"	"trialDuration"	"pID"	"Trial"	"rtLog"	"right"	"left"
"1"	20	45	1	-1	-2.3	1	4	-1	1	1.308	-2.1598	1.5694	-6.5953	-9.1952	7.5491	1.8457	1.0499	0.6572	-5.7791	-9.243	-2.3125	-10.3277	-4.1909	-0.0238	-4.585	-5.8523	-1.144	-0.8972	-3.2139	7.4869	0.333	0.333	0.333	0.333	0.333	0.333	0.333	0.333	0.333	0.333	0.333	0.333	0.333	0.333	0.333	0.333	0.333	0.333	0.333	6.327	1.6054	2.925	20	1	0.268499253035007	0	1
"2"	20	57	1	-4	-9.2	1	3	-1	1	0.836	-4.4204	-6.2278	-5.1385	-12.0815	-11.5869	-12.409	-8.4785	-5.2395	-14.5433	-18.0158	-1.3114	-10.6118	-6.7803	-19.8876	-10.7098	-14.3067	-3.8779	-8.0794	-9.0594	-3.0972	0.333	0.333	0.333	0.333	0.333	0.333	0.333	0.333	0.333	0.333	0.333	0.333	0.333	0.333	0.333	0.333	0.333	0.333	0.333	6.327	1.4862	2.3364	20	2	-0.179126665897435	0	1
"3"	20	49	1	4	9.2	1	3	1	1	0.956	4.6776	17.1525	13.6732	2.5828	7.1402	9.8974	15.512	17.1363	3.4422	13.0761	4.1278	2.9054	11.9669	12.6096	7.9985	8.9457	4.2591	12.9454	3.4289	11.7226	0.333	0.333	0.333	0.333	0.333	0.333	0.333	0.333	0.333	0.333	0.333	0.333	0.333	0.333	0.333	0.333	0.333	0.333	0.333	6.327	1.6243	2.5903	20	3	-0.0449973659307358	1	0
"4"	20	19	1	1	2.3	1	4	1	1	1.229	1.0369	8.3916	3.2309	3.8428	-5.2833	-4.5692	4.1666	1.2533	7.8958	2.584	4.115	4.5096	-0.8866	-5.1042	6.5867	-5.1369	-4.0531	8.9706	7.2526	8.1491	0.333	0.333	0.333	0.333	0.333	0.333	0.333	0.333	0.333	0.333	0.333	0.333	0.333	0.333	0.333	0.333	0.333	0.333	0.333	6.327	1.6621	2.8969	20	4	0.206200830583898	1	0
"5"	20	52	1	-1	-2.3	0	6	-1	1	1.82	-3.9482	2.7304	-13.933	-5.7772	-4.2055	-5.5804	2.6455	-0.2888	1.8054	-8.1146	-11.4425	-1.5804	3.6546	0.9521	3.3087	2.4762	-4.4664	-1.8569	-2.2818	-1.4818	0.2442	0.3526	0.272	0.3738	0.2044	0.4517	0.3833	0.3338	0.4588	0.21	0.384	0.2856	0.3686	0.3307	0.2241	0.467	0.3628	0.2286	0.395	6.3311	1.6273	3.4541	20	5	0.598836501088704	0	1
"6"	20	36	1	-4	-9.2	0	4	-1	1	1.118	-5.1436	-19.5845	-8.7727	-7.6141	-11.8569	-10.9404	-7.1031	-12.9225	-3.3868	-8.9688	-9.4655	-17.1464	-6.7004	-7.4903	-6.5854	-4.2425	-10.3844	-19.7892	-5.1148	-1.3909	0.4625	0.2861	0.3339	0.2144	0.3404	0.3063	0.3929	0.4708	0.2513	0.4408	0.5318	0.3309	0.2018	0.2797	0.2342	0.3832	0.2038	0.3083	0.3587	6.3319	1.438	2.569	20	6	0.111541374732908	0	1
"7"	20	56	1	4	9.2	0	5	1	1	1.581	4.2609	4.7546	11.6493	8.843	6.6512	5.5506	12.9565	7.1031	12.1933	13.92	16.9802	17.3544	1.2191	11.2728	9.0763	11.8518	15.5198	11.0841	3.0067	0.033	0.3787	0.4346	0.4079	0.2604	0.3597	0.2834	0.5022	0.2056	0.2893	0.2475	0.5262	0.2066	0.4636	0.2575	0.363	0.4	0.2475	0.2187	0.2656	6.318	1.5966	3.1814	20	7	0.458057558227335	1	0
"8"	20	66	1	-1	-2.3	0	5	-1	1	1.503	-7.0433	-2.599	-6.3501	-6.9219	-1.2618	-6.0323	-4.7482	-2.2612	-1.1677	-7.3915	-0.951	5.1349	-8.8138	9.1611	4.3272	3.5068	-4.2935	1.2979	-7.7499	-2.4137	0.3699	0.2136	0.262	0.3695	0.4936	0.2149	0.49	0.2473	0.4181	0.268	0.4453	0.3556	0.2965	0.3597	0.2601	0.3316	0.2096	0.4569	0.2642	6.3265	1.4212	2.9367	20	8	0.407463110770837	0	1
"9"	20	29	1	-4	-9.2	1	4	-1	1	1.151	-8.3402	-10.5273	-6.7896	-16.095	-17.7698	-12.1462	-12.7686	0.1862	-11.6258	-13.1853	-0.7203	-3.7139	-8.1592	-11.6002	-12.0164	-2.7389	-8.08	-3.0466	-10.0938	-14.7518	0.333	0.333	0.333	0.333	0.333	0.333	0.333	0.333	0.333	0.333	0.333	0.333	0.333	0.333	0.333	0.333	0.333	0.333	0.333	6.327	1.6806	2.8349	20	9	0.140631129739746	0	1
"10"	20	9	1	-2	-4.6	0	4	-1	1	1.314	-5.3194	-6.9591	-8.9112	3.2148	1.1107	-10.7245	-3.1378	-1.0566	-13.8216	-13.4099	1.7517	-5.1719	2.704	1.3199	-7.7735	-4.798	-5.8354	-4.6489	-6.581	-4.4774	0.3225	0.2161	0.4927	0.4597	0.2923	0.258	0.231	0.3196	0.3992	0.2003	0.3082	0.2487	0.5231	0.2003	0.4318	0.3989	0.2478	0.433	0.3456	6.3287	1.6142	2.9316	20	10	0.273075920062419	0	1
"11"	20	70	1	4	9.2	0	3	1	1	1.223	9.92	1.2911	13.4044	11.8822	1.338	14.5509	5.9148	3.9815	7.9454	21.4044	12.1727	11.5676	10.5648	7.7439	12.4497	6.0584	3.181	11.1076	11.2845	5.029	0.3597	0.4674	0.4195	0.2255	0.4564	0.3035	0.2409	0.268	0.3445	0.3058	0.2177	0.416	0.2982	0.2144	0.2598	0.4881	0.452	0.3933	0.204	6.3346	1.7238	2.9571	20	11	0.201306856705035	1	0
"12"	20	13	1	2	4.6	0	4	1	1	1.421	6.588	11.4454	3.0628	4.6348	8.0032	1.3922	3.2507	7.2411	3.1346	5.3143	6.0454	-9.8938	7.5833	-0.493	9.8179	2.8886	7.564	4.837	11.3757	-2.5326	0.3552	0.2388	0.4885	0.405	0.2069	0.2527	0.4491	0.4233	0.2054	0.2906	0.3268	0.2683	0.2313	0.324	0.2849	0.344	0.4344	0.3427	0.461	6.3331	1.5472	2.9712	20	12	0.351360849114964	1	0
"13"	20	61	1	1	2.3	1	12	-1	0	3.771	1.6286	-8.2922	8.1668	-5.8441	6.5251	1.2394	1.9164	-1.7285	-0.2085	-1.8626	1.6406	6.1969	5.5467	6.1611	7.7288	7.669	-2.4942	5.61	-3.2815	7.9115	0.333	0.333	0.333	0.333	0.333	0.333	0.333	0.333	0.333	0.333	0.333	0.333	0.333	0.333	0.333	0.333	0.333	0.333	0.333	6.327	1.5193	5.2884	20	13	1.32734021827622	0	1
"14"	20	30	1	-2	-4.6	1	3	-1	1	0.91	-3.3776	1.1206	-8.7235	0.8685	-4.3545	-8.4019	-1.2155	-13.1075	-9.2758	-8.2805	-8.2442	-4.8391	-2.2241	-1.9023	2.0278	-0.8088	-11.0843	-12.2484	0.3104	2.1905	0.333	0.333	0.333	0.333	0.333	0.333	0.333	0.333	0.333	0.333	0.333	0.333	0.333	0.333	0.333	0.333	0.333	0.333	0.333	6.327	1.6686	2.5943	20	14	-0.0943106794712413	0	1
"15"	20	18	1	0	0	1	5	-1	1	1.582	-4.7942	2.3518	-0.5592	0.2893	-0.3239	-1.1977	-8.8486	4.6014	4.6541	0.4661	0.2045	-0.9409	-6.13	3.8535	3.261	5.4677	-11.4348	1.9645	9.8354	-2.0891	0.333	0.333	0.333	0.333	0.333	0.333	0.333	0.333	0.333	0.333	0.333	0.333	0.333	0.333	0.333	0.333	0.333	0.333	0.333	6.327	1.4099	2.999	20	15	0.458689869345462	0	1
"16"	20	68	1	1	2.3	0	6	1	1	1.944	-1.606	4.9179	5.4148	2.1043	7.343	-2.0966	6.4929	-5.7518	4.9611	-1.7608	4.943	4.3114	9.1678	0.839	1.7973	8.634	-5.0314	8.9093	-2.4349	-6.8634	0.2253	0.5268	0.2849	0.4516	0.2333	0.2695	0.499	0.3248	0.4165	0.2983	0.2253	0.3316	0.2641	0.2265	0.3545	0.23	0.5206	0.2415	0.4125	6.3366	1.6451	3.5944	20	16	0.664747706038247	1	0
"17"	20	20	1	2	4.6	1	6	1	1	1.785	0.8679	3.6318	4.8157	10.0427	-3.883	4.8603	3.2413	8.7179	1.2465	13.7609	-2.9147	5.9856	4.2968	-4.2262	3.6848	11.287	12.5003	4.5576	4.2914	3.8533	0.333	0.333	0.333	0.333	0.333	0.333	0.333	0.333	0.333	0.333	0.333	0.333	0.333	0.333	0.333	0.333	0.333	0.333	0.333	6.327	1.6805	3.4859	20	17	0.579418415231602	1	0
"18"	20	1	1	-4	-9.2	1	4	-1	1	1.158	-4.6175	-12.7722	-10.323	-5.5395	-3.0088	-15.1578	-6.3152	-15.9471	-11.7927	-14.5949	-5.3945	-15.2712	-13.1755	-17.3501	-6.0486	-1.443	-2.8153	-9.1695	-10.0829	-4.5194	0.333	0.333	0.333	0.333	0.333	0.333	0.333	0.333	0.333	0.333	0.333	0.333	0.333	0.333	0.333	0.333	0.333	0.333	0.333	6.327	1.565	2.7258	20	18	0.146694379150803	0	1
"19"	20	8	1	-4	-9.2	0	4	-1	1	1.341	-13.3992	-4.1067	-10.2748	-13.8826	-15.8353	-6.7106	-18.5365	-5.4801	-8.1273	-3.9575	-14.0639	-5.9556	-7.5577	-10.1965	1.5512	-16.1898	-6.8098	-5.7588	-7.8471	-10.2157	0.5218	0.2866	0.4871	0.2135	0.2603	0.2878	0.3129	0.3511	0.4415	0.4715	0.3622	0.2719	0.2326	0.4607	0.2125	0.3044	0.3384	0.2088	0.2928	6.3183	1.5999	2.9588	20	19	0.293415604299541	0	1
"20"	20	51	1	-2	-4.6	0	3	-1	1	1.023	-5.9514	-10.4085	-9.8497	-2.3805	9.9861	-1.156	-10.3622	-3.6921	-0.7662	-10.6244	-7.0447	-5.0827	-6.7533	-1.648	-0.543	-2.4555	-8.2154	-0.8643	-3.458	-10.8471	0.4549	0.258	0.401	0.5117	0.341	0.4102	0.2294	0.4914	0.2733	0.3401	0.2077	0.4365	0.3276	0.2562	0.3087	0.2314	0.3046	0.2418	0.3018	6.3274	1.6982	2.7241	20	20	0.0227394869694893	0	1
"21"	20	58	1	-2	-4.6	1	4	-1	1	1.053	0.2394	-5.2623	-6.4113	-10.515	4.3478	0.3766	-13.0371	-3.3118	-6.5662	-12.8071	-7.1251	-4.3262	-2.9589	-9.2021	4.1003	-6.481	2.5535	-4.6715	-4.8195	-5.6108	0.333	0.333	0.333	0.333	0.333	0.333	0.333	0.333	0.333	0.333	0.333	0.333	0.333	0.333	0.333	0.333	0.333	0.333	0.333	6.327	1.6098	2.6707	20	21	0.0516432331518384	0	1
"22"	20	65	1	-2	-4.6	0	3	-1	1	0.938	-7.0458	0.6458	-1.58	1.8699	-12.0112	-5.247	3.6453	-11.8824	-5.11	-3.6486	-14.8057	-2.8442	0.7905	-2.2703	-2.6669	-8.1323	-8.2375	-0.8513	-10.0406	-2.8425	0.5328	0.2873	0.4261	0.3215	0.3975	0.2003	0.4257	0.3238	0.2746	0.2429	0.2864	0.3254	0.282	0.4892	0.3297	0.2666	0.2324	0.4509	0.2353	6.3302	1.5783	2.5217	20	22	-0.0640053299759124	0	1
"23"	20	5	1	1	2.3	1	6	1	1	1.81	3.4544	-8.4857	3.381	-0.7462	-4.6123	10.1748	2.3211	0.7043	2.6751	3.4912	0.4624	4.4065	8.8065	-6.0423	-1.426	8.5792	3.436	3.3866	9.3943	2.6535	0.333	0.333	0.333	0.333	0.333	0.333	0.333	0.333	0.333	0.333	0.333	0.333	0.333	0.333	0.333	0.333	0.333	0.333	0.333	6.327	1.5206	3.3441	20	23	0.593326845277734	1	0
"24"	20	31	1	-1	-2.3	1	3	-1	1	0.834	-5.8945	0.919	-6.9486	2.1359	-9.1138	-0.9255	3.2202	-1.1671	-7.1372	-3.8048	-1.296	0.0725	-0.3782	-11.0161	7.8638	-6.2625	-6.5441	-5.9236	0.5624	4.1327	0.333	0.333	0.333	0.333	0.333	0.333	0.333	0.333	0.333	0.333	0.333	0.333	0.333	0.333	0.333	0.333	0.333	0.333	0.333	6.327	1.6642	2.5018	20	24	-0.18152187662339	0	1
"25"	20	12	1	1	2.3	0	7	1	1	2.043	2.3421	0.362	6.0307	-0.4331	4.1974	0.9927	2.5535	4.4017	8.5049	2.3911	1.8669	3.5824	8.2786	7.4945	-12.876	6.9106	2.5356	2.874	-4.5877	-2.3957	0.2466	0.2031	0.2766	0.3288	0.2441	0.509	0.3733	0.2285	0.3958	0.4291	0.2291	0.2897	0.5268	0.3441	0.261	0.339	0.4847	0.3557	0.2664	6.3314	1.472	3.5104	20	25	0.714419315835485	1	0
"26"	20	28	1	4	9.2	0	4	1	1	0.96	11.9251	6.9541	3.0753	7.9412	5.3088	9.3608	12.5578	-3.6284	8.8287	6.8754	7.8724	15.2988	13.1786	6.8088	7.0522	11.9209	12.8017	8.1205	21.1356	9.7865	0.2162	0.2487	0.2	0.4297	0.4777	0.2762	0.3066	0.2733	0.3469	0.3156	0.2343	0.4039	0.2893	0.4278	0.238	0.3748	0.5167	0.4882	0.2618	6.3256	1.6832	2.6446	20	26	-0.0408219945202552	1	0
"27"	20	33	1	1	2.3	1	11	-1	0	3.5	4.2741	1.5944	-0.6667	-1.374	4.4186	6.4105	3.8906	13.4306	-0.3955	-3.115	8.0213	7.6221	-2.0362	0.8305	-6.327	9.1107	-4.8447	4.687	0.7721	1.4292	0.333	0.333	0.333	0.333	0.333	0.333	0.333	0.333	0.333	0.333	0.333	0.333	0.333	0.333	0.333	0.333	0.333	0.333	0.333	6.327	1.6766	5.1846	20	27	1.25276296849537	0	1
"28"	20	17	1	-1	-2.3	1	4	-1	1	1.096	-1.264	-10.1048	1.1463	-11.8465	-3.9237	-1.5765	2.4218	6.3455	-2.4198	0.3918	-9.8546	-4.8808	-4.9846	3.3095	-2.7124	3.2559	-4.5483	3.4735	-6.7028	0.4467	0.333	0.333	0.333	0.333	0.333	0.333	0.333	0.333	0.333	0.333	0.333	0.333	0.333	0.333	0.333	0.333	0.333	0.333	0.333	6.327	1.55	2.6636	20	28	0.0916671885258239	0	1
"29"	20	41	1	2	4.6	0	5	1	1	1.591	2.1964	8.0843	-2.7627	2.7798	10.6153	11.9118	2.3926	-2.4737	3.4104	2.8672	1.0505	3.7999	10.0294	4.1169	17.4809	4.6276	1.11	6.7173	-0.2011	4.2504	0.3305	0.2548	0.5179	0.3519	0.4532	0.5022	0.2334	0.3202	0.4266	0.269	0.2212	0.3722	0.203	0.2424	0.3753	0.4024	0.2085	0.3719	0.2776	6.3342	1.5804	3.1922	20	29	0.46436274935565	1	0
"30"	20	42	1	4	9.2	0	2	1	1	0.762	10.3126	13.2962	17.9307	10.9761	9.1331	-0.6629	13.3013	8.5548	8.4402	15.3511	0.0219	6.2601	5.3472	13.0254	4.6569	12.0399	16.2828	6.3631	7.8259	6.0382	0.3596	0.4886	0.3495	0.2776	0.3219	0.2616	0.219	0.5006	0.2558	0.3319	0.2798	0.3978	0.2245	0.3119	0.234	0.3247	0.3862	0.2781	0.5265	6.3297	1.6453	2.4131	20	30	-0.271808723295491	1	0
"31"	20	48	1	2	4.6	1	7	1	1	2.107	1.1391	2.911	0.0061	8.6354	8.1678	14.11	0.3628	11.3087	-1.1121	3.7917	5.2718	-4.9729	1.8196	-1.8826	6.0962	3.7283	5.041	8.7252	6.5899	11.8969	0.333	0.333	0.333	0.333	0.333	0.333	0.333	0.333	0.333	0.333	0.333	0.333	0.333	0.333	0.333	0.333	0.333	0.333	0.333	6.327	1.4517	3.5744	20	31	0.745265134822052	1	0
"32"	20	63	1	4	9.2	1	3	1	1	0.767	12.4681	13.8168	8.3144	19.2983	9.6111	11.9475	7.5626	18.9146	2.8709	5.2147	13.0166	3.496	10.2242	2.364	3.5931	4.6232	14.0299	5.8645	6.4268	11.3749	0.333	0.333	0.333	0.333	0.333	0.333	0.333	0.333	0.333	0.333	0.333	0.333	0.333	0.333	0.333	0.333	0.333	0.333	0.333	6.327	1.7258	2.5012	20	32	-0.265268477614881	1	0
"33"	20	44	1	-2	-4.6	1	3	-1	1	0.738	-6.7773	-3.7461	0.3569	-15.7202	-9.8535	-1.6834	-6.6431	-5.3982	-10.8243	-5.6291	3.2851	0.1584	0.4106	-6.4578	-6.3507	3.2782	-3.5962	-7.6824	-9.0912	-0.7695	0.333	0.333	0.333	0.333	0.333	0.333	0.333	0.333	0.333	0.333	0.333	0.333	0.333	0.333	0.333	0.333	0.333	0.333	0.333	6.327	1.4399	2.1883	20	33	-0.303811454381665	0	1
"34"	20	53	1	0	0	0	3	-1	0	0.72	-4.3917	-2.9857	-1.1979	0.5412	8.0729	3.9005	-1.578	-9.5862	5.5484	8.5817	-3.6247	-2.1014	-0.0363	-0.2711	-3.7941	5.5175	5.9714	-5.7366	-4.1704	0.754	0.5105	0.2049	0.3905	0.2853	0.3147	0.5275	0.2304	0.4012	0.4319	0.2605	0.3316	0.2428	0.2699	0.3138	0.2337	0.4513	0.2151	0.4257	0.2769	6.3182	1.5696	2.3045	20	34	-0.328504066972036	0	1
"35"	20	4	1	0	0	1	9	-1	0	2.94	0.2898	2.1121	2.0588	0.1695	3.9718	-1.7666	2.7362	-0.4112	3.9926	6.9401	0.9175	7.7182	-9.4279	-8.3392	-0.2808	-7.1067	-7.9719	-3.3678	4.6077	3.3445	0.333	0.333	0.333	0.333	0.333	0.333	0.333	0.333	0.333	0.333	0.333	0.333	0.333	0.333	0.333	0.333	0.333	0.333	0.333	6.327	1.4428	4.3911	20	35	1.07840958135059	0	1
"36"	20	37	1	-2	-4.6	0	3	-1	1	0.952	-5.3413	2.0676	-1.5606	-0.9618	-14.0014	-0.2358	-1.4482	-11.1537	-6.1417	-8.1902	-8.704	-1.1657	-0.4914	-9.7237	2.0147	2.8599	-6.4629	-10.4792	-7.4335	-6.1989	0.5121	0.2475	0.2076	0.3395	0.2834	0.2322	0.4335	0.222	0.3005	0.2342	0.2699	0.2998	0.5104	0.3236	0.4366	0.3767	0.5025	0.3169	0.2742	6.3231	1.5693	2.5366	20	36	-0.0491902441907718	0	1
"37"	20	69	1	2	4.6	0	8	1	1	2.409	0.9824	13.1201	1.1013	11.4599	11.7335	-0.9872	5.3692	3.1655	8.2716	8.3259	7.1682	-0.3125	8.0605	7.5487	9.1461	-3.3242	3.046	-1.3609	-2.8597	2.3563	0.3377	0.456	0.2462	0.1998	0.4758	0.2507	0.3132	0.28	0.1999	0.4984	0.4367	0.3519	0.2565	0.3391	0.2748	0.242	0.4553	0.386	0.3229	6.3227	1.7179	4.1263	20	37	0.879211723632734	1	0
"38"	20	11	1	0	0	0	10	1	1	2.896	2.1111	2.8424	4.4278	-1.1922	-7.0885	6.4296	-0.4409	-2.2755	-10.3593	-2.9874	1.705	5.4386	-9.5475	0.2437	-2.8123	8.1296	4.1922	1.848	1.73	-2.05	0.2405	0.4504	0.2673	0.355	0.4082	0.2761	0.2197	0.338	0.2097	0.4781	0.3368	0.2391	0.301	0.2732	0.4614	0.3051	0.3938	0.3368	0.4312	6.3213	1.6574	4.5636	20	38	1.06333047452347	1	0
"39"	20	67	1	0	0	0	7	1	1	2.033	0.6885	3.4543	4.9427	-2.3217	2.9195	-8.7084	-9.4578	-0.0387	-7.9076	0.4577	-4.6133	-1.4095	0.7764	1.1398	7.6895	1.0733	-1.3449	6.4038	8.9651	-1.6418	0.3447	0.3035	0.2271	0.3651	0.404	0.2689	0.4068	0.3383	0.2007	0.2633	0.2309	0.2784	0.4044	0.3102	0.4518	0.205	0.4395	0.4718	0.4054	6.3199	1.5665	3.5999	20	39	0.70951253464621	1	0
"40"	20	7	1	4	9.2	1	4	1	1	1.006	7.954	19.3034	13.3066	12.5669	11.5313	12.2505	11.1416	7.5635	12.7895	9.4319	-1.0647	10.0421	0.3218	6.0898	13.8092	2.9576	13.0942	7.0782	10.9643	4.3899	0.333	0.333	0.333	0.333	0.333	0.333	0.333	0.333	0.333	0.333	0.333	0.333	0.333	0.333	0.333	0.333	0.333	0.333	0.333	6.327	1.5125	2.5235	20	40	0.00598207167754747	1	0
"41"	20	62	1	2	4.6	1	4	1	1	1.209	6.5604	5.2788	-6.0692	8.4262	7.6155	0.4019	3.8089	8.7248	11.9431	-2.3647	3.697	-0.1226	2.0778	9.5493	1.5238	1.9099	12.3668	11.2059	0.2925	3.577	0.333	0.333	0.333	0.333	0.333	0.333	0.333	0.333	0.333	0.333	0.333	0.333	0.333	0.333	0.333	0.333	0.333	0.333	0.333	6.327	1.427	2.643	20	41	0.189793571632656	1	0
"42"	20	2	1	-2	-4.6	1	4	-1	1	1.319	-1.1433	-12.4951	-5.949	5.397	-2.1676	-1.2011	-7.4515	-10.1655	-3.9786	-10.3526	4.3221	-3.157	-4.9544	-2.5633	-7.07	-8.2245	-9.7695	-9.9905	1.3627	-3.8919	0.333	0.333	0.333	0.333	0.333	0.333	0.333	0.333	0.333	0.333	0.333	0.333	0.333	0.333	0.333	0.333	0.333	0.333	0.333	6.327	1.4155	2.7531	20	42	0.276873873735177	0	1
"43"	20	32	1	0	0	1	5	1	1	1.393	3.5683	0.8401	4.4835	4.5243	-5.5735	-5.8984	-4.9687	4.711	-3.6524	4.7122	1.8679	-4.6226	1.7586	-1.4998	-4.2384	-5.2616	9.2004	-6.6423	-0.2466	7.9787	0.333	0.333	0.333	0.333	0.333	0.333	0.333	0.333	0.333	0.333	0.333	0.333	0.333	0.333	0.333	0.333	0.333	0.333	0.333	6.327	1.6973	3.1107	20	43	0.331459694797669	1	0
"44"	20	23	1	-2	-4.6	0	5	-1	1	1.486	-7.1893	2.0093	-10.9029	1.7112	1.2499	2.6854	-9.7472	-4.6157	-5.0237	-3.6057	-12.6587	-8.3984	-5.5916	-0.3061	-7.7193	2.2789	-11.5591	-7.1585	-3.9742	-5.1615	0.201	0.4169	0.3095	0.2708	0.4449	0.2371	0.2732	0.4967	0.381	0.4273	0.2165	0.2986	0.2124	0.2971	0.445	0.2105	0.3981	0.2594	0.5224	6.3185	1.645	3.1535	20	44	0.396087946295567	0	1
"45"	20	39	1	0	0	0	5	-1	0	1.523	3.9644	3.8876	4.1869	-3.2848	0.935	4.4847	-2.3571	-2.1772	9.3526	-1.1855	-0.6498	0.689	5.7025	-6.7	6.0086	-5.827	-0.4164	-11.9675	-2.3203	-3.5835	0.2402	0.4113	0.2907	0.2325	0.361	0.268	0.2236	0.2778	0.2301	0.4347	0.3135	0.4697	0.3431	0.4222	0.3394	0.2705	0.2188	0.4421	0.5302	6.3196	1.6286	3.1567	20	45	0.420682073913025	0	1
"46"	20	34	1	2	4.6	1	4	1	1	1.108	8.7801	9.2702	7.2729	6.2132	5.0653	3.9719	-3.0935	10.3133	0.0725	6.252	0.3595	2.6283	1.7901	16.1333	3.7477	3.9114	-0.8658	11.8398	1.1185	-2.3296	0.333	0.333	0.333	0.333	0.333	0.333	0.333	0.333	0.333	0.333	0.333	0.333	0.333	0.333	0.333	0.333	0.333	0.333	0.333	6.327	1.6749	2.7925	20	46	0.102556588325092	1	0
"47"	20	50	1	-4	-9.2	0	4	-1	1	1.177	-4.6021	-2.2305	-8.4774	-10.3956	-15.8842	-6.2147	-2.376	-9.4302	-14.3197	-15.8279	-11.1719	-8.1329	-7.643	-13.3093	-10.4079	0.9185	-15.8583	-13.5321	-11.0139	-3.8274	0.3502	0.2857	0.2012	0.3866	0.3563	0.2673	0.4004	0.2629	0.3472	0.2839	0.4293	0.2789	0.4057	0.2297	0.4205	0.4851	0.3322	0.411	0.2004	6.3342	1.4727	2.6609	20	47	0.16296882827814	0	1
"48"	20	40	1	1	2.3	0	14	-1	0	4.565	7.1911	-4.5175	-10.4332	-1.6944	5.2034	6.4083	-0.427	0.0192	-1.6042	2.4619	10.7411	6.2822	2.1161	5.6235	4.2494	-0.3805	3.0126	-2.3512	5.9156	7.947	0.4022	0.3083	0.5245	0.4468	0.2226	0.3162	0.2833	0.3681	0.2864	0.329	0.3923	0.3135	0.2045	0.288	0.321	0.257	0.3361	0.4512	0.2791	6.3301	1.5807	6.1487	20	48	1.51841851404693	0	1
"49"	20	6	1	2	4.6	1	6	1	1	1.682	4.8321	5.3484	-0.8071	3.6675	13.092	5.0124	5.518	7.1231	5.8296	5.5903	-1.0701	4.606	-1.0321	-5.6728	11.5538	6.2036	-0.5371	13.6194	8.3259	1.2984	0.333	0.333	0.333	0.333	0.333	0.333	0.333	0.333	0.333	0.333	0.333	0.333	0.333	0.333	0.333	0.333	0.333	0.333	0.333	6.327	1.4025	3.0996	20	49	0.519983561550756	1	0
"50"	20	22	1	-4	-9.2	0	3	-1	1	0.929	-9.4916	-11.45	-8.4692	1.1751	-14.709	-6.5433	-3.9978	-14.6726	-10.9888	-5.8728	-12.6911	-5.8034	-1.3867	-6.222	-14.9084	-11.2648	-7.4666	-19.0252	-11.6277	-10.2582	0.2779	0.2413	0.4987	0.2822	0.2235	0.5309	0.4767	0.2087	0.3118	0.2542	0.3213	0.2392	0.471	0.217	0.3702	0.4726	0.2992	0.3745	0.2599	6.3307	1.4477	2.3792	20	50	-0.0736465401682985	0	1
"51"	20	25	1	0	0	0	4	-1	0	0.925	1.3712	5.5079	-2.9083	-3.8416	1.4258	-2.0596	1.0801	4.4344	-12.7111	0.7941	6.4866	2.5535	0.6185	-1.2023	0.3117	3.4025	-10.2489	-2.2096	8.0926	0.6249	0.27	0.2426	0.3981	0.2959	0.219	0.3626	0.4414	0.2191	0.2839	0.2256	0.3751	0.4276	0.2319	0.5054	0.2229	0.2996	0.5217	0.4139	0.3692	6.3255	1.4155	2.3422	20	51	-0.0779615414697118	0	1
"52"	20	21	1	4	9.2	1	3	1	1	0.971	9.3067	10.4998	5.2228	8.7042	-2.2047	8.6864	21.0923	9.0898	8.9048	11.5326	1.2321	8.8383	14.5495	6.5866	11.9902	10.5146	15.8516	5.53	8.1636	8.085	0.333	0.333	0.333	0.333	0.333	0.333	0.333	0.333	0.333	0.333	0.333	0.333	0.333	0.333	0.333	0.333	0.333	0.333	0.333	6.327	1.543	2.5216	20	52	-0.0294288106908122	1	0
"53"	20	55	1	2	4.6	0	3	1	1	0.786	5.5099	10.9757	5.8316	7.0043	5.5259	0.7656	1.14	4.4031	-0.8104	-1.1298	13.9884	3.3157	4.7341	15.6138	-4.6831	0.0729	3.2907	8.9889	3.9569	2.6855	0.2194	0.3263	0.3704	0.4237	0.2841	0.3499	0.2421	0.2021	0.2282	0.2941	0.3816	0.2626	0.3598	0.4178	0.4468	0.4971	0.3585	0.2366	0.4277	6.3288	1.5088	2.3031	20	53	-0.24079848655293	1	0
"54"	20	3	1	-1	-2.3	1	3	-1	1	0.882	-4.3022	-8.4277	-12.0042	-1.9391	-6.4906	-6.1411	-5.2671	2.2137	-5.0568	1.1348	1.8358	-0.9131	-5.7284	-9.1844	-3.1051	2.1507	0.854	3.4627	7.8996	1.1405	0.333	0.333	0.333	0.333	0.333	0.333	0.333	0.333	0.333	0.333	0.333	0.333	0.333	0.333	0.333	0.333	0.333	0.333	0.333	6.327	1.6154	2.4999	20	54	-0.125563222975346	0	1
"55"	20	35	1	4	9.2	1	3	1	1	0.948	12.632	4.424	16.1397	10.61	12.3329	9.8018	13.5217	6.1798	14.3378	12.1392	2.5925	12.6723	9.4055	11.4126	2.2907	14.5481	8.6506	9.1869	3.4895	-2.7606	0.333	0.333	0.333	0.333	0.333	0.333	0.333	0.333	0.333	0.333	0.333	0.333	0.333	0.333	0.333	0.333	0.333	0.333	0.333	6.327	1.6096	2.5654	20	55	-0.0534007767271153	1	0
"56"	20	15	1	-4	-9.2	1	3	-1	1	0.725	-6.8342	-8.579	-11.6564	-10.0194	-17.0365	-3.6472	-2.8772	-0.448	-15.5218	-2.9338	-3.246	-12.9349	-13.5931	-7.922	-8.7764	-10.0458	-15.4058	-7.4984	-6.7873	-17.8083	0.333	0.333	0.333	0.333	0.333	0.333	0.333	0.333	0.333	0.333	0.333	0.333	0.333	0.333	0.333	0.333	0.333	0.333	0.333	6.327	1.5637	2.2924	20	56	-0.321583624127462	0	1
"57"	20	16	1	-2	-4.6	1	4	-1	1	1.228	-7.8782	3.9877	-0.3865	-4.3998	-12.6317	1.0409	-7.6713	-6.1526	-5.8187	-0.75	-3.3212	-12.8482	-1.7283	-6.3162	-7.8644	4.3375	-8.7843	-2.1353	-11.2783	-3.0671	0.333	0.333	0.333	0.333	0.333	0.333	0.333	0.333	0.333	0.333	0.333	0.333	0.333	0.333	0.333	0.333	0.333	0.333	0.333	6.327	1.4768	2.7289	20	57	0.205386829724951	0	1
"58"	20	64	1	-4	-9.2	0	3	-1	1	0.608	-9.0712	-12.4688	-5.3586	-14.065	-6.6687	-7.7278	-5.6802	-10.6702	-1.1283	-3.743	-9.1054	-13.4979	-14.2469	-16.5967	-0.9265	-11.7531	-15.1022	-4.7581	-4.3703	-16.9806	0.2764	0.21	0.3529	0.2366	0.4711	0.2902	0.2167	0.2593	0.498	0.2348	0.3738	0.3145	0.2142	0.5155	0.4878	0.4048	0.203	0.413	0.3645	6.3368	1.7166	2.3426	20	58	-0.49758039701597	0	1
"59"	20	14	1	4	9.2	0	4	1	1	0.991	8.5132	11.7697	8.9469	4.7953	12.2882	3.6487	5.732	13.4088	14.3271	3.9468	5.2005	-0.2959	10.2758	5.2407	11.2182	17.9939	12.6418	3.3562	16.901	13.949	0.3442	0.2085	0.4012	0.2417	0.4372	0.3277	0.4139	0.4457	0.2083	0.2458	0.3506	0.5146	0.3541	0.3149	0.2053	0.4361	0.2974	0.2622	0.3103	6.3197	1.5078	2.5079	20	59	-0.00904074465214907	1	0
"60"	20	47	1	1	2.3	1	3	1	1	0.735	5.7283	3.0731	1.4054	11.1001	4.6511	8.1999	0.3831	-1.334	-5.0208	9.5343	-2.6854	8.0818	2.1812	2.9975	0.0945	-8.4884	2.2807	0.7369	6.1645	-3.234	0.333	0.333	0.333	0.333	0.333	0.333	0.333	0.333	0.333	0.333	0.333	0.333	0.333	0.333	0.333	0.333	0.333	0.333	0.333	6.327	1.562	2.3019	20	60	-0.3078847797693	1	0
"61"	20	59	1	-1	-2.3	1	3	-1	1	0.861	-3.1988	-5.0065	-7.2146	-4.1528	0.3075	-4.3722	-5.4297	0.9276	-0.4974	8.1503	9.3223	-4.929	-9.5106	-0.2118	-2.4193	-11.9162	-1.7397	-0.6606	-3.0846	-0.8342	0.333	0.333	0.333	0.333	0.333	0.333	0.333	0.333	0.333	0.333	0.333	0.333	0.333	0.333	0.333	0.333	0.333	0.333	0.333	6.327	1.4702	2.3453	20	61	-0.149660774554406	0	1
"62"	20	10	1	-1	-2.3	0	6	-1	1	1.977	-2.4887	7.9523	-1.4707	-6.0918	-4.935	-6.8326	-2.7965	-1.6234	3.431	-1.7453	-6.1218	-9.4224	-1.3032	-3.3203	-5.5377	8.1576	-5.7415	-2.1932	-7.717	5.4946	0.2528	0.371	0.428	0.4922	0.3622	0.3025	0.2051	0.241	0.3118	0.4875	0.3985	0.297	0.2389	0.273	0.2429	0.3067	0.442	0.3925	0.2856	6.3313	1.503	3.4942	20	62	0.68158054418848	0	1
"63"	20	38	1	-1	-2.3	0	3	-1	1	0.683	-0.7926	2.6862	-8.65	0.6963	-8.3717	-9.4433	1.4702	-8.0493	-1.66	-0.1741	-11.1477	4.8195	0.6488	-6.9311	3.8564	1.6538	-4.7098	-3.1817	2.5905	-0.2669	0.3466	0.2151	0.4803	0.2374	0.4323	0.3116	0.2091	0.4796	0.3704	0.2803	0.3765	0.2344	0.3348	0.5061	0.2158	0.3764	0.3287	0.2802	0.3104	6.326	1.6367	2.3342	20	63	-0.381260419411347	0	1
"64"	20	54	1	1	2.3	0	3	-1	0	0.705	1.215	0.4427	-1.3449	11.7247	-1.4893	9.6228	1.9605	-4.492	4.382	8.7861	4.769	-5.1596	-0.0083	-3.8301	3.6358	-3.8167	9.3463	1.5483	3.9758	4.6946	0.2161	0.2435	0.4125	0.3735	0.3099	0.3706	0.3447	0.3775	0.2514	0.4232	0.373	0.3103	0.4315	0.4688	0.2742	0.2014	0.3426	0.4046	0.2045	6.3339	1.4232	2.1394	20	64	-0.349557476169868	0	1
"65"	20	60	1	0	0	1	7	-1	1	2.181	2.0877	-7.612	6.2112	0.2105	-3.2328	-2.9821	-0.749	2.2869	-2.7721	1.4673	-6.241	-3.71	10.7653	-3.0621	7.8206	-5.5997	-0.9821	5.5587	5.767	-4.2434	0.333	0.333	0.333	0.333	0.333	0.333	0.333	0.333	0.333	0.333	0.333	0.333	0.333	0.333	0.333	0.333	0.333	0.333	0.333	6.327	1.4578	3.6486	20	65	0.779783487219492	0	1
"66"	20	24	1	-1	-2.3	0	5	-1	1	1.339	0.542	3.2678	-1.8857	-4.8662	2.9017	-3.4928	-0.2518	-4.9836	-4.9934	2.9096	-7.865	-0.6914	-7.2205	-2.5083	2.2944	-1.6684	1.1236	-18.0189	-3.6414	1.1498	0.2559	0.2826	0.3769	0.415	0.2948	0.3707	0.2982	0.2395	0.2774	0.3374	0.4881	0.3667	0.2808	0.2357	0.5252	0.4116	0.2437	0.4133	0.2154	6.329	1.6017	2.9394	20	66	0.291923066709035	0	1
"67"	20	46	1	0	0	1	5	-1	0	1.488	-0.7881	5.142	7.481	5.7133	2.9605	6.5902	-3.6154	-8.9736	-1.7233	6.7831	-7.2595	0.6103	-3.2209	-0.5632	2.7817	-7.125	1.7376	-0.6909	-0.8504	-5.8179	0.333	0.333	0.333	0.333	0.333	0.333	0.333	0.333	0.333	0.333	0.333	0.333	0.333	0.333	0.333	0.333	0.333	0.333	0.333	6.327	1.5952	3.0887	20	67	0.3974329364109	0	1
"68"	20	27	1	2	4.6	0	8	1	1	2.509	3.5366	10.7967	10.6494	-2.1204	2.4751	2.5893	7.6846	5.734	-1.7066	10.3425	11.2277	3.6666	0.6483	9.5753	1.3486	-3.57	-1.4726	3.4973	3.7954	12.3917	0.228	0.5074	0.2178	0.5296	0.3186	0.4546	0.2485	0.3969	0.2488	0.5066	0.2377	0.2879	0.3519	0.2391	0.3055	0.21	0.4315	0.3953	0.2164	6.332	1.6235	4.1429	20	68	0.919884267384285	1	0
"69"	20	26	1	1	2.3	0	13	1	1	4.137	-1.0618	4.7498	1.6034	-1.8166	7.0195	8.6842	-4.9834	8.7852	-0.6566	5.2918	-5.1583	0.4753	5.7529	-2.3744	4.2371	1.2186	3.3322	-5.7986	10.9953	6.6841	0.3439	0.4343	0.3201	0.4175	0.324	0.2486	0.216	0.389	0.2737	0.316	0.3563	0.4059	0.4526	0.3048	0.3495	0.309	0.2233	0.29	0.3569	6.3313	1.6427	5.7877	20	69	1.41997088747927	1	0
"70"	20	43	1	-4	-9.2	1	3	-1	1	0.997	-5.0166	-11.516	-20.8649	-13.0632	-3.4053	-7.93	-11.0019	-9.7432	-16.4264	-5.8943	-3.8621	-3.7466	-0.7963	-11.4157	-6.4887	-11.4419	-6.3904	-10.3929	-10.2179	-15.0367	0.333	0.333	0.333	0.333	0.333	0.333	0.333	0.333	0.333	0.333	0.333	0.333	0.333	0.333	0.333	0.333	0.333	0.333	0.333	6.327	1.5966	2.5975	20	70	-0.00300450902029872	0	1
"71"	20	7	2	4	6.8	1	3	1	1	0.795	6.3594	15.2633	9.2143	6.3188	0.2668	12.5435	5.5915	0.8121	9.9868	12.1203	8.9326	10.2176	7.5705	-3.8055	0.2526	6.7824	2.716	7.677	4.9074	14.0199	0.333	0.333	0.333	0.333	0.333	0.333	0.333	0.333	0.333	0.333	0.333	0.333	0.333	0.333	0.333	0.333	0.333	0.333	0.333	6.327	1.4939	2.2954	20	71	-0.229413164327805	1	0
"72"	20	10	2	-1	-1.7	0	3	-1	1	0.684	-2.4268	-3.7617	0.8862	-3.3918	-6.4398	-10.6875	-10.0063	6.0468	-4.414	4.0806	0.44	1.214	-0.0328	0.0995	5.5423	4.4094	2.0955	-9.8468	-5.504	-0.3103	0.282	0.2278	0.2787	0.4283	0.2773	0.3779	0.3294	0.4705	0.3458	0.2876	0.2492	0.4353	0.5085	0.4269	0.3163	0.2533	0.3846	0.2021	0.2375	6.3188	1.5978	2.2849	20	72	-0.379797361359587	0	1
"73"	20	6	2	2	3.4	1	5	1	1	1.568	3.0004	-0.7491	3.173	-2.7117	5.9594	4.3973	-0.4718	10.5318	0.875	10.3448	-3.6212	-7.0603	-1.3792	11.3331	5.8074	6.0005	3.7771	5.9282	3.6979	8.3868	0.333	0.333	0.333	0.333	0.333	0.333	0.333	0.333	0.333	0.333	0.333	0.333	0.333	0.333	0.333	0.333	0.333	0.333	0.333	6.327	1.5542	3.1354	20	73	0.449800921928216	1	0
"74"	20	32	2	0	0	1	6	-1	1	1.703	4.1345	-6.4992	-6.9178	-0.906	3.0167	0.0706	8.4287	-0.5861	4.1544	-2.4701	3.7445	2.322	-1.6643	0.3995	-0.6962	1.8256	-5.5179	10.7688	-8.4205	-4.5781	0.333	0.333	0.333	0.333	0.333	0.333	0.333	0.333	0.333	0.333	0.333	0.333	0.333	0.333	0.333	0.333	0.333	0.333	0.333	6.327	1.5538	3.2704	20	74	0.532391401680551	0	1
"75"	20	63	2	4	6.8	1	3	1	1	0.708	10.4896	10.7076	12.9625	3.3465	8.7619	1.3081	7.1399	7.7201	10.4556	11.3195	-4.5663	15.2648	7.8646	-1.146	2.5898	4.6283	9.7052	6.3355	2.4188	8.6844	0.333	0.333	0.333	0.333	0.333	0.333	0.333	0.333	0.333	0.333	0.333	0.333	0.333	0.333	0.333	0.333	0.333	0.333	0.333	6.327	1.4342	2.1588	20	75	-0.345311185288417	1	0
"76"	20	41	2	2	3.4	0	5	1	1	1.696	3.7572	-0.7487	4.2883	15.4521	3.9474	-5.2698	5.4405	-4.2199	3.7324	7.6472	3.1432	3.5211	10.9465	1.5056	3.6516	5.7947	7.1137	4.8929	-5.757	1.0561	0.4896	0.3887	0.3062	0.2797	0.249	0.3222	0.2354	0.4354	0.2414	0.2989	0.395	0.3637	0.3105	0.3514	0.2661	0.2918	0.4515	0.2165	0.441	6.3342	1.637	3.3468	20	76	0.528272537369711	1	0
"77"	20	58	2	-2	-3.4	1	3	-1	1	0.949	-4.0617	-9.2822	-0.8725	-8.8605	-8.0899	-6.3949	-3.3028	-2.3215	-4.1478	0.1408	1.4245	8.7003	1.3973	-8.6049	-0.2774	-8.7996	-1.8078	-9.4906	3.2094	-8.4485	0.333	0.333	0.333	0.333	0.333	0.333	0.333	0.333	0.333	0.333	0.333	0.333	0.333	0.333	0.333	0.333	0.333	0.333	0.333	6.327	1.6337	2.5998	20	77	-0.0523464803722092	0	1
"78"	20	43	2	-4	-6.8	1	3	-1	1	0.969	-1.8649	-10.2982	-20.1566	-11.6205	-6.8539	-3.2049	-7.6311	-6.5529	-10.7236	-1.0866	-10.6368	-2.5043	-10.3114	-5.4371	-10.0094	-2.2017	-3.7921	2.5285	-6.7928	-5.9958	0.333	0.333	0.333	0.333	0.333	0.333	0.333	0.333	0.333	0.333	0.333	0.333	0.333	0.333	0.333	0.333	0.333	0.333	0.333	6.327	1.4555	2.4366	20	78	-0.0314906670913709	0	1
"79"	20	27	2	2	3.4	0	5	1	1	1.044	6.7999	9.1153	2.9898	1.7098	2.28	10.1103	-8.5301	-1.2712	3.3071	2.7478	4.5892	2.2532	1.3001	3.0332	-0.5234	2.5558	1.5759	16.0945	0.297	7.1861	0.2482	0.3038	0.2656	0.2027	0.3133	0.352	0.2442	0.496	0.5245	0.3754	0.2615	0.2043	0.2633	0.3154	0.2348	0.5068	0.4709	0.3147	0.429	6.3261	1.408	2.4617	20	79	0.043059489460447	1	0
"80"	20	30	2	-2	-3.4	1	6	-1	1	1.85	-2.147	-2.4388	4.5122	-4.2667	6.7876	-0.5254	-6.9844	-1.7079	-5.4338	-7.5261	-14.2692	0.6028	-3.3365	-4.5049	-4.7438	-5.8052	-7.8712	5.7023	-4.1086	-8.3231	0.333	0.333	0.333	0.333	0.333	0.333	0.333	0.333	0.333	0.333	0.333	0.333	0.333	0.333	0.333	0.333	0.333	0.333	0.333	6.327	1.4945	3.3509	20	80	0.615185639090233	0	1
"81"	20	65	2	-2	-3.4	0	3	-1	1	0.855	-1.3718	-0.2525	-1.2525	1.3475	-4.6247	-3.1179	3.2132	-8.3991	-9.5937	-10.5919	1.7068	9.5072	-1.6852	-5.5989	-5.4717	-6.5295	-6.2261	-3.2513	-8.084	-9.5235	0.3188	0.2328	0.4118	0.2551	0.2169	0.4048	0.3042	0.2236	0.3467	0.4149	0.3804	0.2146	0.4118	0.5223	0.4225	0.2342	0.4989	0.2284	0.2766	6.3194	1.4785	2.3388	20	81	-0.156653810045377	0	1
"82"	20	16	2	-2	-3.4	1	3	-1	1	0.941	-3.6588	0.1185	-7.5921	6.0292	1.359	-8.4617	-3.6812	4.669	-4.5285	-7.9096	-0.6557	-7.9753	-2.6179	-5.8854	-1.6435	-2.187	-2.1557	3.4386	-13.1462	-9.912	0.333	0.333	0.333	0.333	0.333	0.333	0.333	0.333	0.333	0.333	0.333	0.333	0.333	0.333	0.333	0.333	0.333	0.333	0.333	6.327	1.7029	2.6585	20	82	-0.0608121393967575	0	1
"83"	20	56	2	4	6.8	0	3	1	1	1.113	3.971	4.1821	12.9241	11.6391	1.9115	5.6833	9.1411	12.5385	6.0261	6.7261	15.1166	5.5583	10.5784	3.2557	2.866	-0.6514	7.9808	-1.6007	14.5555	1.7083	0.5062	0.2595	0.3931	0.3565	0.2029	0.3003	0.3728	0.2161	0.2741	0.2473	0.4174	0.2358	0.3137	0.4685	0.3306	0.2086	0.4734	0.4132	0.3444	6.3344	1.6752	2.7969	20	83	0.107059072293408	1	0
"84"	20	66	2	-1	-1.7	0	3	-1	1	0.821	-2.8391	-4.8036	-5.3118	1.2466	4.4357	-1.7391	-3.1574	-1.8989	-7.1938	-10.1677	8.9373	-1.1541	2.8859	2.7551	2.6075	3.2321	-9.5102	-5.6024	-6.4424	1.6222	0.4837	0.2703	0.4719	0.3604	0.3095	0.2556	0.2111	0.3104	0.2796	0.3736	0.4371	0.468	0.2481	0.1999	0.3854	0.2399	0.2705	0.2982	0.4616	6.3347	1.4204	2.2378	20	84	-0.197232169529709	0	1
"85"	20	53	2	0	0	0	3	-1	0	0.936	-3.2848	-4.1944	10.2754	5.3391	-7.023	5.3642	0.0796	4.0176	-1.9829	-1.5193	-4.789	0.9193	-8.3215	6.1619	4.0207	-1.8569	-4.27	2.1275	3.5577	-5.33	0.3624	0.5294	0.2553	0.432	0.3694	0.2926	0.2189	0.5004	0.2195	0.3257	0.2077	0.2341	0.4512	0.3419	0.2384	0.4624	0.4173	0.2158	0.2576	6.3319	1.4761	2.4199	20	85	-0.0661398025045449	0	1
"86"	20	36	2	-4	-6.8	0	3	-1	1	0.802	-8.0382	-8.0636	-18.7005	-0.3992	-6.3779	-1.6488	-8.1348	-4.2519	-13.9523	-7.2802	-6.7143	-11.9842	-10.2806	-4.7799	-8.0305	-3.0473	-5.2444	-12.2117	2.5416	-1.0392	0.237	0.2825	0.5046	0.2789	0.4018	0.2995	0.5036	0.3056	0.3952	0.4378	0.2654	0.3393	0.2664	0.3273	0.2384	0.3897	0.2927	0.2511	0.3045	6.3213	1.7036	2.5028	20	86	-0.220646671115623	0	1
"87"	20	64	2	-4	-6.8	0	3	-1	1	0.734	-4.7649	-7.5015	-10.0255	-14.7822	-10.2432	-13.0147	-8.1769	-14.0257	-4.7185	-3.1675	0.8654	-6.1394	2.1587	-8.2185	-6.115	-5.734	-5.476	2.7055	-10.1633	-11.3	0.2589	0.2257	0.3877	0.315	0.4158	0.2444	0.3914	0.3265	0.4155	0.3038	0.2339	0.4245	0.269	0.4518	0.4021	0.3201	0.2778	0.3906	0.2674	6.3217	1.6778	2.4186	20	87	-0.309246250367621	0	1
"88"	20	38	2	-1	-1.7	0	3	-1	1	0.974	-5.4321	-4.099	-4.4791	-3.2906	-5.3622	0.4652	-2.3004	-10.0822	4.1317	-0.5185	7.2788	1.8041	8.8713	4.7427	-3.5186	-7.9726	-5.0615	-2.297	-3.6048	-1.9108	0.4501	0.2092	0.3501	0.2979	0.3293	0.3978	0.3294	0.2869	0.2146	0.2606	0.4182	0.388	0.484	0.29	0.3447	0.4535	0.2809	0.3103	0.2251	6.3206	1.4954	2.4748	20	88	-0.026343975339602	0	1
"89"	20	24	2	-1	-1.7	0	4	-1	1	1.154	-4.6612	-1.4497	-4.6621	5.3822	-8.0592	3.0675	3.8782	-2.1156	-5.9378	0.0677	-2.6793	0.6445	4.4266	-0.2033	-11.7885	8.3989	-2.0394	-1.2047	-6.1048	-7.0178	0.3049	0.3482	0.2018	0.425	0.494	0.5272	0.2178	0.2795	0.2172	0.3592	0.4959	0.4577	0.3946	0.3447	0.2168	0.2672	0.3172	0.2426	0.2111	6.3226	1.4598	2.6386	20	89	0.143234168085908	0	1
"90"	20	3	2	-1	-1.7	1	3	-1	1	0.829	-0.9623	-11.0618	5.3816	-9.48	3.6852	2.4021	-7.0216	2.5359	-5.9383	-0.2118	3.7724	-4.2597	-2.3394	-3.1622	-7.116	3.6119	-2.5842	5.7781	-3.4057	-3.6785	0.333	0.333	0.333	0.333	0.333	0.333	0.333	0.333	0.333	0.333	0.333	0.333	0.333	0.333	0.333	0.333	0.333	0.333	0.333	6.327	1.6395	2.48	20	90	-0.187535123846842	0	1
"91"	20	4	2	0	0	1	4	-1	0	1.157	2.0062	4.8593	6.9147	5.7135	-5.4081	1.8521	2.3901	-5.7552	-2.0696	-0.5271	1.6586	3.8136	2.7395	-13.9562	-6.7432	-3.4387	2.5352	2.1478	2.5538	-1.5188	0.333	0.333	0.333	0.333	0.333	0.333	0.333	0.333	0.333	0.333	0.333	0.333	0.333	0.333	0.333	0.333	0.333	0.333	0.333	6.327	1.6654	2.8411	20	91	0.14583044821154	0	1
"92"	20	19	2	1	1.7	1	5	1	1	1.542	5.9755	-3.6662	-1.4956	4.3087	7.3448	-0.3055	6.5149	-5.0803	9.8616	-0.1828	-3.8181	0.3475	8.4921	-0.0363	0.8846	3.0098	-0.2579	9.3767	-3.881	-5.1407	0.333	0.333	0.333	0.333	0.333	0.333	0.333	0.333	0.333	0.333	0.333	0.333	0.333	0.333	0.333	0.333	0.333	0.333	0.333	6.327	1.5203	3.0761	20	92	0.433080275141138	1	0
"93"	20	20	2	2	3.4	1	3	1	1	0.856	6.85	-1.6109	5.2862	5.2021	2.8583	7.3748	0.301	5.2421	2.9321	-6.992	1.5156	3.3729	-3.9022	-0.8452	2.233	3.8996	13.902	11.392	9.5614	0.0142	0.333	0.333	0.333	0.333	0.333	0.333	0.333	0.333	0.333	0.333	0.333	0.333	0.333	0.333	0.333	0.333	0.333	0.333	0.333	6.327	1.4644	2.3405	20	93	-0.155484902840395	1	0
"94"	20	60	2	0	0	1	3	-1	0	0.795	-2.157	-12.2922	2.8467	-0.1206	-3.2066	2.8601	4.2706	1.1302	6.5955	5.9059	3.2115	-2.8043	-1.1725	-2.9802	-5.2748	-7.2127	3.7921	-0.4489	-2.2571	7.718	0.333	0.333	0.333	0.333	0.333	0.333	0.333	0.333	0.333	0.333	0.333	0.333	0.333	0.333	0.333	0.333	0.333	0.333	0.333	6.327	1.402	2.2122	20	94	-0.229413164327805	0	1
"95"	20	2	2	-2	-3.4	1	5	-1	1	1.641	-6.3767	0.8523	1.5271	-3.4444	-0.0821	-2.7598	-6.1152	-13.1544	-1.1951	-6.4443	-7.0029	5.185	-13.4931	-1.6868	-9.7887	-1.7566	-0.8408	-3.5195	3.7019	-1.0156	0.333	0.333	0.333	0.333	0.333	0.333	0.333	0.333	0.333	0.333	0.333	0.333	0.333	0.333	0.333	0.333	0.333	0.333	0.333	6.327	1.6785	3.3256	20	95	0.495305812107954	0	1
"96"	20	52	2	-1	-1.7	0	7	1	0	1.949	-5.6517	-0.9812	-1.8318	-2.6307	13.7085	-6.2897	-1.5791	-5.4405	-3.3519	-6.1636	-3.7168	-5.9155	6.1876	3.1562	-2.2723	-3.7524	-7.3969	1.9837	-2.1785	-1.5486	0.2336	0.2786	0.2369	0.314	0.2037	0.2733	0.5246	0.4774	0.4327	0.2693	0.4696	0.2294	0.4467	0.3911	0.2142	0.2979	0.3961	0.2371	0.3941	6.3203	1.5811	3.5328	20	96	0.667316420525424	1	0
"97"	20	44	2	-2	-3.4	1	3	-1	1	0.775	-7.1766	-1.0464	-9.3771	-10.3759	-0.6363	1.1548	-11.3145	-7.1705	5.3043	-6.4786	-5.2671	-4.1554	-4.3571	-1.9758	1.6612	-1.3368	1.431	1.7849	-10.6412	2.3505	0.333	0.333	0.333	0.333	0.333	0.333	0.333	0.333	0.333	0.333	0.333	0.333	0.333	0.333	0.333	0.333	0.333	0.333	0.333	6.327	1.4666	2.2424	20	97	-0.25489224962879	0	1
"98"	20	28	2	4	6.8	0	5	1	1	1.387	10.9207	8.6414	4.2366	4.7833	15.4623	0.478	10.3363	-0.9863	6.2865	8.0061	8.2555	4.4859	-0.4843	11.3481	2.1852	4.8784	4.709	4.6498	17.8123	11.1465	0.2776	0.4168	0.3561	0.2524	0.2788	0.4723	0.3394	0.4035	0.2661	0.3389	0.2002	0.4023	0.4985	0.3031	0.214	0.417	0.2691	0.3307	0.2812	6.318	1.536	2.9377	20	98	0.327143141332695	1	0
"99"	20	17	2	-1	-1.7	1	3	-1	1	0.924	-0.5105	-5.9866	1.8316	2.309	-10.9696	-9.4195	-1.8575	-3.0721	-0.051	4.5306	-1.6652	-9.114	2.5448	-2.668	1.4966	2.3087	5.0611	-0.821	-9.6595	1.2818	0.333	0.333	0.333	0.333	0.333	0.333	0.333	0.333	0.333	0.333	0.333	0.333	0.333	0.333	0.333	0.333	0.333	0.333	0.333	6.327	1.512	2.4414	20	99	-0.0790432073404529	0	1
"100"	20	11	2	0	0	0	7	-1	0	1.975	-0.2962	-2.0946	-0.0177	-6.3264	-0.4003	-0.9724	-2.3195	3.2788	-0.3941	-6.7115	-3.4715	-5.3294	7.5592	5.5071	-6.3257	-3.4864	5.6955	4.0578	11.6327	0.5831	0.2583	0.2936	0.2194	0.2496	0.4256	0.3524	0.245	0.2857	0.4603	0.3649	0.4515	0.491	0.2285	0.3719	0.231	0.3734	0.3443	0.2363	0.4433	6.3261	1.7069	3.6923	20	100	0.680568398353085	0	1
"101"	20	9	2	-2	-3.4	0	7	-1	1	2.234	0.582	-5.3827	-6.0715	-8.8785	4.6717	0.5561	-3.1613	-2.3706	-1.1977	3.5295	-6.5209	0.6582	2.2238	-2.3062	-1.7941	-14.0181	-1.2415	-10.1391	-7.034	-8.6701	0.26	0.4386	0.2638	0.4424	0.2366	0.4581	0.2997	0.2011	0.2364	0.4629	0.2053	0.4881	0.3602	0.3113	0.2173	0.3633	0.2525	0.3624	0.4607	6.3208	1.6661	3.9009	20	101	0.803793700647009	0	1
"102"	20	49	2	4	6.8	1	3	1	1	0.795	4.7762	11.4248	11.7959	13.3755	9.1574	-0.2902	8.18	3.7625	2.1311	11.7053	7.6278	5.4315	13.3643	1.0084	5.9557	11.5523	-1.5379	6.9653	-0.9004	11.5288	0.333	0.333	0.333	0.333	0.333	0.333	0.333	0.333	0.333	0.333	0.333	0.333	0.333	0.333	0.333	0.333	0.333	0.333	0.333	6.327	1.4801	2.2787	20	102	-0.229413164327805	1	0
"103"	20	47	2	1	1.7	1	4	-1	0	1.161	1.5755	10.0166	-0.6145	6.8583	-5.9496	-4.2553	2.84	-6.5039	7.0043	3.7367	3.2603	-0.9434	3.0409	3.867	4.4621	-3.5911	4.6079	8.8741	-6.3575	1.5025	0.333	0.333	0.333	0.333	0.333	0.333	0.333	0.333	0.333	0.333	0.333	0.333	0.333	0.333	0.333	0.333	0.333	0.333	0.333	6.327	1.5283	2.6953	20	103	0.149281702715754	0	1
"104"	20	69	2	2	3.4	0	3	-1	0	0.935	-0.7881	0.7555	6.5259	6.9443	-2.7936	2.2124	8.4422	1.8075	12.1347	5.6087	6.0292	0.778	-3.5019	8.4777	0.4777	8.7746	-4.5291	9.0748	5.2354	-4.973	0.3824	0.4516	0.32	0.2539	0.2191	0.3347	0.4809	0.3755	0.2962	0.4113	0.4469	0.2406	0.2044	0.271	0.2311	0.2868	0.4062	0.3432	0.3762	6.3321	1.5287	2.4686	20	104	-0.06720874969345	0	1
"105"	20	51	2	-2	-3.4	0	4	-1	1	1.44	-8.2212	-5.7097	0.7973	-2.8586	-1.6369	-6.35	-7.1275	-7.2005	-9.9569	-4.1929	6.9952	-2.9784	-1.3578	-0.3387	-3.3136	-10.6291	6.7493	-4.7052	3.4405	-9.0799	0.4844	0.4022	0.2923	0.4582	0.3189	0.2795	0.213	0.3672	0.4988	0.3066	0.226	0.2922	0.2286	0.3731	0.2365	0.202	0.2815	0.3905	0.4772	6.3287	1.5734	3.0239	20	105	0.364643113587909	0	1
"106"	20	15	2	-4	-6.8	1	5	-1	1	1.34	-8.0721	-10.968	-12.4076	-3.4464	-10.4117	-15.2399	-10.5183	-2.5969	4.165	-8.7124	-4.6355	-9.2181	-3.4865	-13.0005	-9.4637	0.7686	-2.2789	-8.7364	-7.1014	-1.9263	0.333	0.333	0.333	0.333	0.333	0.333	0.333	0.333	0.333	0.333	0.333	0.333	0.333	0.333	0.333	0.333	0.333	0.333	0.333	6.327	1.7157	3.0737	20	106	0.29266961396282	0	1
"107"	20	35	2	4	6.8	1	3	1	1	0.959	10.018	9.5011	3.6615	2.3205	11.4671	15.1279	0.6262	6.2692	1.4164	8.4811	5.3529	5.8812	14.8048	-2.2956	14.0234	0.6764	7.2926	9.1334	3.9074	9.7	0.333	0.333	0.333	0.333	0.333	0.333	0.333	0.333	0.333	0.333	0.333	0.333	0.333	0.333	0.333	0.333	0.333	0.333	0.333	6.327	1.495	2.4596	20	107	-0.0418642040986989	1	0
"108"	20	37	2	-2	-3.4	0	4	-1	1	1.309	-0.2524	-1.8682	-1.5177	-3.9405	-5.4474	0.0176	4.6622	1.7041	-1.9132	-4.5668	-9.5115	-13.3185	-3.7018	-3.8172	6.6425	-9.4686	-1.2248	-5.3134	-12.0055	-4.5552	0.2129	0.3459	0.3764	0.4546	0.3347	0.4816	0.2974	0.4605	0.5312	0.2136	0.4625	0.3083	0.2218	0.2493	0.3465	0.3033	0.2308	0.2613	0.235	6.3275	1.7041	3.0267	20	108	0.269263486927763	0	1
"109"	20	14	2	4	6.8	0	10	1	1	2.847	10.2804	1.7425	2.8777	3.5204	6.245	-0.7889	8.1621	8.3148	0.449	7.4976	1.3309	7.2792	9.0179	11.5302	4.7228	10.0664	20.1316	10.8466	11.4351	1.1588	0.2363	0.3265	0.251	0.3228	0.437	0.3148	0.3729	0.2055	0.3704	0.4815	0.3783	0.2834	0.3466	0.4393	0.24	0.3037	0.2776	0.4334	0.3035	6.3245	1.7306	4.5983	20	109	1.0462658082959	1	0
"110"	20	61	2	1	1.7	1	6	-1	0	1.681	0.8182	2.3762	-2.9917	2.9439	-8.5831	-3.5313	2.3812	6.5858	7.4643	8.9374	-4.9928	-0.0047	-1.9917	4.6918	-4.4821	10.1664	2.8739	0.1059	3.6279	7.2314	0.333	0.333	0.333	0.333	0.333	0.333	0.333	0.333	0.333	0.333	0.333	0.333	0.333	0.333	0.333	0.333	0.333	0.333	0.333	6.327	1.7263	3.4149	20	110	0.519388854426479	0	1
"111"	20	29	2	-4	-6.8	1	4	-1	1	1.124	-4.1475	-10.8749	-11.8162	-6.9785	-2.3195	-4.4063	-11.8751	-2.3601	-11.6086	-11.2789	-6.4423	-13.0253	-7.3099	-4.801	-11.1507	-8.7409	-2.6947	4.5832	-9.9808	3.2118	0.333	0.333	0.333	0.333	0.333	0.333	0.333	0.333	0.333	0.333	0.333	0.333	0.333	0.333	0.333	0.333	0.333	0.333	0.333	6.327	1.5464	2.6749	20	111	0.116893751471499	0	1
"112"	20	12	2	1	1.7	0	6	-1	0	1.704	6.5253	3.6965	-3.4874	4.6991	4.2936	-0.768	0.704	-7.4462	-6.6811	-4.2344	4.7669	-4.7491	0.7936	-0.1039	3.4871	6.3982	2.0808	4.4728	8.486	9.3201	0.2242	0.4781	0.3349	0.2717	0.3075	0.2721	0.2178	0.4753	0.2715	0.4252	0.357	0.2168	0.315	0.2368	0.4712	0.2644	0.3286	0.5071	0.3433	6.3187	1.4291	3.1384	20	112	0.532978428407124	0	1
"113"	20	62	2	2	3.4	1	5	1	1	1.557	-0.2513	12.8387	5.8109	6.5962	3.1672	-1.5476	-3.8656	6.1332	-0.6397	3.0213	4.2865	1.3911	2.4111	-3.3389	12.8178	3.4835	1.096	11.9249	2.9109	-0.9323	0.333	0.333	0.333	0.333	0.333	0.333	0.333	0.333	0.333	0.333	0.333	0.333	0.333	0.333	0.333	0.333	0.333	0.333	0.333	6.327	1.6441	3.2081	20	113	0.442760892851861	1	0
"114"	20	42	2	4	6.8	0	3	1	1	0.813	10.1867	15.1771	5.3417	5.2654	13.0207	4.8923	4.4065	15.9117	5.1203	1.3268	6.823	6.018	1.0793	12.4775	-1.545	6.822	3.1908	0.2875	11.6834	8.3453	0.3056	0.3836	0.3376	0.2851	0.4622	0.2177	0.2802	0.2162	0.2641	0.4512	0.3888	0.3364	0.4702	0.3667	0.2037	0.3532	0.2099	0.3712	0.4219	6.3253	1.4169	2.2307	20	114	-0.207024169434327	1	0
"115"	20	55	2	2	3.4	0	4	1	1	1.306	4.6409	7.4714	1.0482	4.087	7.3986	3.4451	0.2658	-5.142	-6.0748	10.4998	8.7026	3.985	0.7476	-4.3529	8.5639	-0.7095	8.628	2.6709	10.527	2.8202	0.3969	0.2446	0.2748	0.5215	0.2404	0.3281	0.2055	0.282	0.2375	0.3495	0.4286	0.24	0.3083	0.2728	0.4381	0.2419	0.3198	0.5128	0.4801	6.3233	1.6259	2.9404	20	115	0.266969030854239	1	0
"116"	20	57	2	-4	-6.8	1	3	-1	1	0.83	-10.9759	-7.0223	-6.5927	-6.3083	-12.3743	-5.4579	-0.5805	-13.9683	-11.5981	-12.9953	5.8121	-1.1213	-10.2843	-6.6992	-4.5564	-2.2374	-9.2857	-12.0993	-3.7077	-5.4246	0.333	0.333	0.333	0.333	0.333	0.333	0.333	0.333	0.333	0.333	0.333	0.333	0.333	0.333	0.333	0.333	0.333	0.333	0.333	6.327	1.6988	2.5309	20	116	-0.186329578191494	0	1
"117"	20	34	2	2	3.4	1	14	-1	0	4.331	1.8946	16.0268	4.5053	0.2683	3.3913	2.7508	-0.1421	5.3142	-0.825	11.5924	5.66	-4.4109	7.4691	-2.8874	4.2664	4.0885	4.8431	-4.5803	1.8473	6.0173	0.333	0.333	0.333	0.333	0.333	0.333	0.333	0.333	0.333	0.333	0.333	0.333	0.333	0.333	0.333	0.333	0.333	0.333	0.333	6.327	1.4227	5.7479	20	117	1.46579846223249	0	1
"118"	20	45	2	-1	-1.7	1	8	-1	1	2.493	-3.8704	-1.6141	5.3449	0.2994	3.1538	-3.6373	-2.6978	-2.5242	-9.2275	-7.7079	1.0181	-5.2254	-4.3507	2.9196	3.8064	5.4282	-10.0403	5.8046	-3.8758	-6.0705	0.333	0.333	0.333	0.333	0.333	0.333	0.333	0.333	0.333	0.333	0.333	0.333	0.333	0.333	0.333	0.333	0.333	0.333	0.333	6.327	1.4607	3.9605	20	118	0.913486804541421	0	1
"119"	20	5	2	1	1.7	1	7	1	1	2.282	-1.7971	1.349	-0.1366	-0.042	4.9675	8.4272	-0.524	1.2477	8.0221	0.958	1.6286	-6.7471	-6.0273	-3.1938	14.2289	0.2775	8.3104	3.6761	-0.596	0.2153	0.333	0.333	0.333	0.333	0.333	0.333	0.333	0.333	0.333	0.333	0.333	0.333	0.333	0.333	0.333	0.333	0.333	0.333	0.333	6.327	1.6164	3.9164	20	119	0.825052251439884	1	0
"120"	20	33	2	1	1.7	1	9	1	1	2.752	-2.709	3.3236	-1.9175	-8.9939	6.8055	0.9599	8.4551	-4.6538	-4.0413	4.9585	6.0722	-4.3794	2.6406	6.5771	-1.945	5.4762	7.1607	1.6593	6.9146	2.9212	0.333	0.333	0.333	0.333	0.333	0.333	0.333	0.333	0.333	0.333	0.333	0.333	0.333	0.333	0.333	0.333	0.333	0.333	0.333	6.327	1.5702	4.3358	20	120	1.0123279200711	1	0
"121"	20	18	2	0	0	1	8	1	1	2.584	-2.9782	5.3984	-7.574	2.4307	0.1941	-8.8631	3.707	-0.3724	-7.0363	-5.3463	7.367	-3.3106	4.5541	-4.4489	0.3984	4.8447	5.253	6.6664	1.1563	-3.3599	0.333	0.333	0.333	0.333	0.333	0.333	0.333	0.333	0.333	0.333	0.333	0.333	0.333	0.333	0.333	0.333	0.333	0.333	0.333	6.327	1.7271	4.3181	20	121	0.949338585920355	1	0
"122"	20	22	2	-4	-6.8	0	5	-1	1	1.566	-2.1681	-1.9788	-8.6598	-12.3156	-12.6218	-12.292	4.6193	-2.0474	2.7014	-13.01	-7.0781	-5.4856	-12.9345	-9.4204	-10.6281	-6.5523	-7.6388	-6.5111	-6.8232	-5.5822	0.5082	0.3353	0.2694	0.3664	0.2376	0.3879	0.3011	0.2089	0.5016	0.2479	0.4211	0.2993	0.3817	0.2186	0.2606	0.3424	0.3037	0.4717	0.2693	6.3327	1.43	3	20	122	0.448524597568611	0	1
"123"	20	21	2	4	6.8	1	5	1	1	1.568	5.8921	6.6385	2.4856	6.4045	11.5506	1.6831	4.3731	9.7659	2.0611	-0.9171	15.0526	9.4233	11.2491	5.3353	2.2108	7.969	18.7803	9.7095	7.7052	0.1543	0.333	0.333	0.333	0.333	0.333	0.333	0.333	0.333	0.333	0.333	0.333	0.333	0.333	0.333	0.333	0.333	0.333	0.333	0.333	6.327	1.7317	3.3026	20	123	0.449800921928216	1	0
"124"	20	23	2	-2	-3.4	0	8	-1	1	2.628	-8.1526	-0.4983	4.2009	-1.0872	0.369	0.8222	-8.3655	-14.7352	-4.0729	1.0971	-11.5574	-2.3	-8.8154	-4.6922	-1.9122	-4.9032	-3.7286	3.0228	0.238	-3.5951	0.4443	0.2561	0.4378	0.4804	0.2017	0.3487	0.2567	0.2194	0.3521	0.4042	0.273	0.2428	0.3626	0.2508	0.2176	0.3345	0.49	0.4501	0.2994	6.3222	1.4839	4.1291	20	124	0.966223100622364	0	1
"125"	20	8	2	-4	-6.8	0	7	-1	1	1.941	-3.3586	-7.3605	-6.1261	-10.921	-8.0083	-4.4451	-4.1283	-12.4901	-13.3774	-0.3411	-18.3825	-3.7692	-7.8263	-6.0473	-5.8554	2.4122	-6.9983	0.7614	-12.0518	-7.8794	0.2446	0.3704	0.2816	0.2291	0.2739	0.2045	0.418	0.4756	0.5246	0.4081	0.2682	0.2014	0.4839	0.3782	0.2499	0.3295	0.4029	0.2329	0.348	6.3252	1.6757	3.6257	20	125	0.663203304186873	0	1
"126"	20	50	2	-4	-6.8	0	3	-1	1	0.83	-3.6669	-16.5134	-11.6922	-6.7306	-4.2949	-1.9184	-0.3978	-8.2962	-10.0919	2.6705	-6.7931	-5.8015	-4.9264	-11.0915	-14.8244	-0.3423	-4.0187	-7.0926	-5.8919	-12.9989	0.3612	0.4327	0.2904	0.2071	0.398	0.4525	0.2153	0.2477	0.2072	0.3858	0.4508	0.2432	0.4161	0.3096	0.4511	0.2824	0.4401	0.2455	0.2861	6.3228	1.403	2.2472	20	126	-0.186329578191494	0	1
"127"	20	68	2	1	1.7	0	9	1	1	2.785	6.6477	1.9335	-5.8211	-1.1625	2.3898	-4.599	0.1554	5.4604	1.593	-4.4255	6.0357	5.5942	13.7751	-6.4066	3.0264	-2.894	5.7643	2.6706	3.2765	1.676	0.2975	0.2555	0.3941	0.356	0.2094	0.3026	0.4426	0.2587	0.4882	0.2756	0.3467	0.2846	0.2204	0.4261	0.3127	0.5267	0.2877	0.3388	0.313	6.3368	1.4954	4.2854	20	127	1.02424787337925	1	0
"128"	20	26	2	1	1.7	0	11	-1	0	3.233	4.1765	-0.5061	-2.736	0.2663	-6.2884	2.7161	5.2979	-11.6547	1.4775	0.0123	-1.4063	1.2414	10.1012	0.4518	8.4169	3.8817	8.2915	2.6017	2.0652	4.5704	0.2183	0.3757	0.3043	0.2107	0.482	0.4349	0.235	0.208	0.3663	0.234	0.4054	0.4339	0.2122	0.3571	0.3122	0.4869	0.4314	0.3822	0.2298	6.3202	1.5391	4.784	20	128	1.1734104987433	0	1
"129"	20	31	2	-1	-1.7	1	3	-1	1	0.863	-6.4245	-2.5142	9.2078	4.5077	2.5101	-8.418	-5.1579	-6.7573	-6.1408	2.2833	-2.2237	-2.6772	3.1186	-8.8099	0.7749	4.5112	-1.453	1.6107	-4.1212	-7.4999	0.333	0.333	0.333	0.333	0.333	0.333	0.333	0.333	0.333	0.333	0.333	0.333	0.333	0.333	0.333	0.333	0.333	0.333	0.333	6.327	1.4716	2.3306	20	129	-0.147340587898709	0	1
"130"	20	40	2	1	1.7	0	11	1	1	3.272	4.8708	-2.8044	5.109	-3.5075	-4.0092	4.3933	0.7636	4.3848	2.8915	14.2441	4.2889	-0.1243	-9.8794	1.9614	5.0381	0.6142	-1.4591	5.6849	2.9195	-0.5916	0.3072	0.407	0.2905	0.2602	0.4115	0.2614	0.2071	0.2585	0.4107	0.3123	0.4496	0.2961	0.2394	0.5144	0.3249	0.2335	0.3615	0.4327	0.3496	6.3282	1.6676	4.9394	20	130	1.1854014187405	1	0
"131"	20	48	2	2	3.4	1	6	1	1	1.759	6.2342	0.8867	5.2868	0.559	12.2865	7.1027	2.5867	-6.1478	-3.5341	1.6865	2.0809	6.6531	14.2639	8.0042	-1.6087	6.676	-1.4723	-0.514	5.5089	3.4074	0.333	0.333	0.333	0.333	0.333	0.333	0.333	0.333	0.333	0.333	0.333	0.333	0.333	0.333	0.333	0.333	0.333	0.333	0.333	6.327	1.6638	3.4434	20	131	0.564745465755421	1	0
"132"	20	13	2	2	3.4	0	7	1	1	2.093	1.6848	4.3476	5.3805	1.3149	11.2666	11.5165	-3.9325	4.3043	4.1775	4.8971	3.0074	1.1707	-1.8681	12.7232	7.491	0.3783	-5.853	0.715	5.2375	-0.9554	0.2491	0.2797	0.5086	0.3819	0.2872	0.2546	0.2906	0.5141	0.3268	0.2782	0.233	0.5124	0.3923	0.2198	0.3212	0.2387	0.4576	0.202	0.3852	6.3327	1.5653	3.6773	20	132	0.738598443463863	1	0
"133"	20	70	2	4	6.8	0	3	1	1	0.792	6.2075	8.0228	1.7118	12.2043	6.1137	11.087	9.4693	4.5752	5.5315	10.8084	4.111	9.7573	15.6665	8.39	12.8477	-3.2694	6.6975	6.039	2.9485	-3.5952	0.2247	0.4519	0.3335	0.5203	0.3732	0.4536	0.2764	0.2322	0.4063	0.2021	0.325	0.3996	0.438	0.2138	0.521	0.22	0.2532	0.2219	0.2512	6.318	1.7231	2.5262	20	133	-0.233193887167711	1	0
"134"	20	46	2	0	0	1	4	1	1	1.127	-1.0697	0.5164	2.1987	4.6232	-4.8901	0.7464	-4.271	-4.5118	10.1096	6.6617	3.6898	2.0129	-12.1003	2.4245	-1.3508	5.3001	-2.4143	-1.4103	-3.6809	-2.8444	0.333	0.333	0.333	0.333	0.333	0.333	0.333	0.333	0.333	0.333	0.333	0.333	0.333	0.333	0.333	0.333	0.333	0.333	0.333	6.327	1.4838	2.6279	20	134	0.119559235057639	1	0
"135"	20	25	2	0	0	0	5	1	0	1.609	3.4279	-1.6683	2.7153	7.8007	-2.5014	-6.9729	3.0647	2.9269	-0.6209	0.1637	-7.3592	2.3081	2.4099	-12.6866	-1.857	1.5062	4.9597	-3.3178	-0.7088	7.1584	0.4532	0.2593	0.5153	0.2767	0.4159	0.2078	0.4169	0.2443	0.3281	0.2499	0.3811	0.5314	0.2653	0.2019	0.2842	0.4848	0.3481	0.2063	0.257	6.3274	1.4011	3.0259	20	135	0.475612868010246	1	0
"136"	20	39	2	0	0	0	6	-1	1	1.712	-2.9549	4.6259	5.6818	4.014	-5.2262	1.995	-3.3844	-0.2379	8.6206	2.1864	-1.2959	-4.1315	-6.8907	-7.6089	-3.3707	9.6343	-1.6875	3.0831	-4.2857	2.5109	0.2557	0.3023	0.4152	0.2581	0.3305	0.4621	0.3112	0.264	0.3458	0.3132	0.2016	0.3768	0.5074	0.2418	0.4459	0.3774	0.4111	0.3082	0.2006	6.3289	1.6957	3.4125	20	136	0.53766227771955	0	1
"137"	20	54	2	1	1.7	0	3	-1	0	0.812	-2.3898	-4.5787	-0.3423	3.0808	3.2936	3.1974	1.5717	10.2529	11.2786	2.3889	-9.6236	1.2666	2.7539	1.3109	5.2669	-5.8349	2.5854	6.3761	3.4278	-1.4471	0.2404	0.2837	0.4807	0.302	0.3875	0.4739	0.2617	0.4983	0.2324	0.3408	0.2054	0.2849	0.2193	0.2889	0.3245	0.5213	0.3807	0.3442	0.2483	6.3189	1.4863	2.3129	20	137	-0.208254938820459	0	1
"138"	20	1	2	-4	-6.8	1	4	-1	1	1.039	-8.5518	-2.1317	-4.8303	-4.5232	-9.2204	2.3026	-9.2053	-13.069	-2.326	-10.7789	-16.5875	-13.2548	-9.2964	-1.4982	-11.6234	-6.8261	-6.4021	-5.0748	-0.8785	-1.6725	0.333	0.333	0.333	0.333	0.333	0.333	0.333	0.333	0.333	0.333	0.333	0.333	0.333	0.333	0.333	0.333	0.333	0.333	0.333	6.327	1.6061	2.6562	20	138	0.0382587121170903	0	1
"139"	20	67	2	0	0	0	3	-1	1	1.027	-4.0835	-11.6435	-0.327	0.8695	3.0635	0.4701	5.6167	-5.8848	2.1259	-7.1822	9.9038	5.5477	2.4002	-3.1563	-3.58	1.7795	-3.0705	-1.0782	2.6745	4.681	0.4984	0.3002	0.2726	0.4387	0.3162	0.2165	0.2654	0.3189	0.2248	0.5102	0.2484	0.3338	0.2889	0.2488	0.3269	0.4287	0.4886	0.3847	0.2084	6.3191	1.5087	2.5441	20	139	0.0266419309464211	0	1
"140"	20	59	2	-1	-1.7	1	8	-1	1	2.451	0.2416	4.8658	-4.6621	0.5142	-8.6434	-2.6437	-2.8313	-2.1732	-3.6882	-2.7935	-1.3966	-8.0293	-0.3731	-4.9595	6.9239	-9.052	-4.3248	9.8746	-3.2788	2.661	0.333	0.333	0.333	0.333	0.333	0.333	0.333	0.333	0.333	0.333	0.333	0.333	0.333	0.333	0.333	0.333	0.333	0.333	0.333	6.327	1.5541	4.018	20	140	0.896496104545976	0	1
"141"	20	49	3	4	6.8	1	3	1	1	0.758	5.4663	9.0153	1.7992	7.5424	9.7049	4.6981	20.1751	4.0406	5.9634	2.9917	6.7047	8.5735	8.0827	5.9064	11.8641	8.2285	3.8905	1.0794	13.2954	-3.2075	0.333	0.333	0.333	0.333	0.333	0.333	0.333	0.333	0.333	0.333	0.333	0.333	0.333	0.333	0.333	0.333	0.333	0.333	0.333	6.327	1.4001	2.1584	20	141	-0.277071893339765	1	0
"142"	20	42	3	4	6.8	0	3	1	1	0.751	7.8684	1.1836	5.5208	14.5944	16.1008	12.0574	9.281	3.6347	2.0176	-0.6726	6.9087	-1.3432	2.818	9.7114	7.8653	7.4186	12.0961	2.9771	6.1285	11.5001	0.2097	0.5188	0.335	0.254	0.3455	0.5069	0.3212	0.3861	0.236	0.3488	0.2092	0.4708	0.3507	0.2537	0.4226	0.304	0.2147	0.3921	0.2437	6.3233	1.5077	2.2684	20	142	-0.286349627218002	1	0
"143"	20	51	3	-2	-3.4	0	3	-1	1	1.008	-6.7493	4.1274	-11.4707	-2.2995	-0.4674	2.2461	-5.3972	0.2605	-2.2233	-0.8177	-11.7949	-3.7327	-4.7139	-7.5679	0.1682	2.4046	-8.5117	-6.6801	3.7096	-9.4417	0.2912	0.3466	0.4614	0.3631	0.5019	0.3145	0.2163	0.279	0.3042	0.4614	0.2139	0.3956	0.3161	0.2217	0.3055	0.4648	0.2184	0.2832	0.37	6.3287	1.6685	2.6926	20	143	0.00796816964917688	0	1
"144"	20	67	3	0	0	0	4	-1	0	0.942	-1.5387	2.5	-0.2668	6.8283	-0.2035	6.8695	-5.0355	1.4252	-3.6725	4.5858	0.7284	-2.2446	0.3206	5.5177	1.819	-7.7671	-5.0013	-3.951	-10.4011	7.8466	0.429	0.2095	0.2852	0.4654	0.302	0.2617	0.3463	0.3203	0.4205	0.2492	0.2961	0.4922	0.2227	0.4735	0.2082	0.2696	0.3933	0.4839	0.2006	6.3294	1.6207	2.5761	20	144	-0.059750004405774	0	1
"145"	20	17	3	-1	-1.7	1	6	-1	1	1.912	1.0913	9.3397	-3.7733	-5.6911	-1.7082	-3.0417	10.2329	-3.0955	-1.5811	1.1019	-7.3418	3.2394	-3.9982	-4.3709	-1.269	0.0365	-6.2412	-4.5187	-8.9215	-4.8598	0.333	0.333	0.333	0.333	0.333	0.333	0.333	0.333	0.333	0.333	0.333	0.333	0.333	0.333	0.333	0.333	0.333	0.333	0.333	6.327	1.5472	3.4794	20	145	0.64814981462921	0	1
"146"	20	35	3	4	6.8	1	8	1	1	2.543	3.3954	5.1394	7.6167	-2.2778	11.2957	12.2303	10.1956	5.2795	6.9865	12.8813	10.1073	9.372	2.4563	5.6373	5.7125	-4.2279	15.7412	7.9435	2.4142	6.7569	0.333	0.333	0.333	0.333	0.333	0.333	0.333	0.333	0.333	0.333	0.333	0.333	0.333	0.333	0.333	0.333	0.333	0.333	0.333	6.327	1.4646	4.0274	20	146	0.933344486439983	1	0
"147"	20	59	3	-1	-1.7	1	5	-1	1	1.583	0.3551	4.2666	0.7689	-4.6727	-7.0708	-2.0995	2.7217	-7.928	1.1496	-0.2935	-8.492	9.8732	-4.0772	-2.4291	-8.4756	2.4887	3.017	-7.2721	-5.0859	-1.4893	0.333	0.333	0.333	0.333	0.333	0.333	0.333	0.333	0.333	0.333	0.333	0.333	0.333	0.333	0.333	0.333	0.333	0.333	0.333	6.327	1.4813	3.0837	20	147	0.459321780898875	0	1
"148"	20	4	3	0	0	1	5	-1	1	1.406	2.4913	8.1242	0.4518	1.9277	-4.7562	-2.6204	-1.9381	-8.673	-1.2881	-7.1805	7.0997	3.819	-5.1308	-3.988	1.6484	7.965	-3.0728	7.5371	-1.971	-0.4482	0.333	0.333	0.333	0.333	0.333	0.333	0.333	0.333	0.333	0.333	0.333	0.333	0.333	0.333	0.333	0.333	0.333	0.333	0.333	6.327	1.4857	2.9062	20	148	0.340748793388473	0	1
"149"	20	20	3	2	3.4	1	7	1	1	2.224	4.3141	8.5689	5.8135	-10.2236	3.4304	7.3632	4.0951	1.6606	-0.5774	5.3919	7.7135	6.8284	8.9972	-2.1221	-4.3489	1.6702	3.7673	1.4869	6.9364	8.8782	0.333	0.333	0.333	0.333	0.333	0.333	0.333	0.333	0.333	0.333	0.333	0.333	0.333	0.333	0.333	0.333	0.333	0.333	0.333	6.327	1.5792	3.8078	20	149	0.799307376388336	1	0
"150"	20	1	3	-4	-6.8	1	3	-1	1	0.947	-7.0241	-7.4318	-8.3517	-3.0997	-5.9509	-3.6552	-9.7641	-6.7269	1.4025	-13.5802	-7.9048	-7.8559	-7.5558	-6.3086	3.205	-12.8466	1.8295	-8.2391	-9.7455	-17.6098	0.333	0.333	0.333	0.333	0.333	0.333	0.333	0.333	0.333	0.333	0.333	0.333	0.333	0.333	0.333	0.333	0.333	0.333	0.333	6.327	1.43	2.3813	20	150	-0.0544561857960589	0	1
"151"	20	43	3	-4	-6.8	1	12	-1	1	3.719	-5.7913	2.5558	-1.8796	-4.2924	-8.4655	1.731	-12.4691	-2.9583	-5.0426	-3.9246	-13.8756	-8.0011	-11.6723	-0.8252	-13.1152	-6.042	-8.1932	-12.3857	-9.8352	-12.5753	0.333	0.333	0.333	0.333	0.333	0.333	0.333	0.333	0.333	0.333	0.333	0.333	0.333	0.333	0.333	0.333	0.333	0.333	0.333	6.327	1.4267	5.1526	20	151	1.31345481494293	0	1
"152"	20	41	3	2	3.4	0	5	1	1	1.562	2.9291	4.6766	10.8257	0.969	10.4469	0.2882	1.264	-0.8679	-1.9991	2.305	6.1888	-0.019	2.1051	-7.8149	5.8264	11.8736	8.7889	0.0925	3.1407	7.7321	0.4845	0.2889	0.3482	0.426	0.2009	0.4455	0.2468	0.2787	0.4114	0.2549	0.4075	0.2622	0.2947	0.245	0.3808	0.2865	0.4855	0.212	0.3586	6.3187	1.4348	2.9958	20	152	0.445967051417494	1	0
"153"	20	40	3	1	1.7	0	6	-1	0	1.872	-1.7847	-1.2285	5.9216	4.7336	-1.9952	2.6987	4.945	-7.8258	-1.2546	-5.3545	5.8559	8.5684	2.0294	7.5929	1.3629	5.5658	10.8403	-2.8022	1.2999	-4.0428	0.4444	0.2939	0.2589	0.2855	0.3152	0.3511	0.2581	0.3369	0.2752	0.5241	0.3304	0.4747	0.3282	0.3647	0.3197	0.2215	0.3678	0.3158	0.2535	6.3195	1.4161	3.2898	20	153	0.6270073780554	0	1
"154"	20	53	3	0	0	0	9	1	1	2.523	-1.9863	3.5151	5.1024	8.1252	-2.4498	1.9331	-0.3956	1.5957	-8.0552	1.3046	-2.105	1.6771	-6.745	1.2188	6.0336	-11.7188	-3.0004	-0.4637	7.2491	-0.2124	0.2277	0.3152	0.3989	0.3368	0.2608	0.2034	0.4314	0.3114	0.2435	0.4828	0.2653	0.4235	0.2251	0.2919	0.4758	0.2446	0.4748	0.2961	0.4254	6.3346	1.4966	4.0233	20	154	0.925448669658921	1	0
"155"	20	69	3	2	3.4	0	7	1	1	2.014	6.5058	-4.6335	6.9533	3.6068	5.7304	3.9639	-9.9089	1.5817	0.1568	3.0316	0.8132	5.9592	-0.3237	3.1842	11.5365	10.5422	-0.4686	6.8756	7.5819	3.3573	0.2188	0.3593	0.326	0.3701	0.2846	0.233	0.4256	0.3111	0.2824	0.4859	0.2139	0.3481	0.2232	0.2797	0.3746	0.4224	0.2151	0.4317	0.5286	6.3342	1.4939	3.5149	20	155	0.70012279429637	1	0
"156"	20	36	3	-4	-6.8	0	4	-1	1	1.214	-11.793	-13.3644	-14.1301	1.2045	-6.1154	-3.6548	-9.8755	-7.1017	-4.21	-10.5573	-11.1267	-8.1726	2.8571	-4.4461	-3.8129	-4.2073	-4.1458	-0.0161	-13.5981	-11.5411	0.4154	0.2247	0.3677	0.437	0.2016	0.2864	0.3747	0.2764	0.3999	0.2811	0.4851	0.2135	0.457	0.2238	0.2942	0.4885	0.2099	0.3722	0.3268	6.3357	1.685	2.9148	20	156	0.193920692637306	0	1
"157"	20	44	3	-2	-3.4	1	5	-1	1	1.492	-1.9539	-8.0795	-7.2597	-5.664	-8.7818	-0.6221	-4.1525	-3.0478	6.1123	-1.4002	-4.1933	-3.2268	-9.3126	2.4115	-8.3424	5.259	-9.4198	-8.2118	3.3267	-0.4941	0.333	0.333	0.333	0.333	0.333	0.333	0.333	0.333	0.333	0.333	0.333	0.333	0.333	0.333	0.333	0.333	0.333	0.333	0.333	6.327	1.6643	3.1758	20	157	0.400117501781569	0	1
"158"	20	3	3	-1	-1.7	1	5	-1	1	1.507	-5.0798	3.3363	6.7733	0.5602	-8.8756	-3.695	-1.7908	-4.2244	-2.0264	-1.2216	1.6888	-12.1512	1.2273	5.7307	-0.1399	2.6345	2.8573	-6.3446	-9.8673	-3.1211	0.333	0.333	0.333	0.333	0.333	0.333	0.333	0.333	0.333	0.333	0.333	0.333	0.333	0.333	0.333	0.333	0.333	0.333	0.333	6.327	1.6113	3.1244	20	158	0.410120919644358	0	1
"159"	20	61	3	1	1.7	1	6	-1	0	1.826	0.5166	-6.5338	8.1163	-5.0146	-2.9602	-0.0593	8.2883	3.19	-4.5645	3.6803	6.837	-1.9599	-0.5665	-5.1394	4.1576	4.031	-1.1542	7.0979	5.5529	9.3981	0.333	0.333	0.333	0.333	0.333	0.333	0.333	0.333	0.333	0.333	0.333	0.333	0.333	0.333	0.333	0.333	0.333	0.333	0.333	6.327	1.4004	3.2431	20	159	0.602127782172777	0	1
"160"	20	15	3	-4	-6.8	1	4	-1	1	1.313	-7.5682	-4.6957	-8.3349	-9.2663	-8.7893	-2.8814	-7.8971	-0.4567	-5.3169	-12.3892	-22.1417	-1.708	-3.8045	-9.5882	-3.2828	-7.6492	-6.6427	1.6447	-4.8778	-10.548	0.333	0.333	0.333	0.333	0.333	0.333	0.333	0.333	0.333	0.333	0.333	0.333	0.333	0.333	0.333	0.333	0.333	0.333	0.333	6.327	1.5742	2.8974	20	160	0.272314595320659	0	1
"161"	20	6	3	2	3.4	1	9	-1	0	2.951	5.9053	-1.9591	-2.8223	2.0989	4.9664	0.112	17.3919	0.0727	8.4782	0.008	-1.3954	-0.3184	9.1124	3.3621	8.1167	0.4488	2.2247	1.8555	8.9062	2.7006	0.333	0.333	0.333	0.333	0.333	0.333	0.333	0.333	0.333	0.333	0.333	0.333	0.333	0.333	0.333	0.333	0.333	0.333	0.333	6.327	1.4409	4.4017	20	161	1.0821440959608	0	1
"162"	20	8	3	-4	-6.8	0	5	-1	1	1.662	-2.9944	-21.2121	-6.1506	-2.2614	-2.8393	-9.4479	-11.3539	-6.969	-7.0435	-0.8421	-3.1176	-3.6122	-2.847	-13.328	-3.4901	-4.905	-12.7388	-4.7687	-7.3729	-7.8237	0.4008	0.3432	0.2056	0.3398	0.4343	0.2423	0.2676	0.2356	0.2893	0.5054	0.4106	0.2355	0.3379	0.2855	0.501	0.4164	0.2148	0.2563	0.4075	6.3293	1.5472	3.2127	20	162	0.508021696433256	0	1
"163"	20	14	3	4	6.8	0	5	1	1	1.443	3.9366	5.8026	14.1293	1.903	7.0131	8.2769	-0.6684	13.6059	13.7411	7.6486	-1.0221	6.4458	5.1457	3.2345	0.0924	15.3877	8.0923	7.9408	10.3224	3.439	0.2067	0.3184	0.4501	0.2743	0.4268	0.2696	0.3964	0.3105	0.2848	0.3786	0.4088	0.3222	0.4881	0.2363	0.3603	0.2236	0.4493	0.2957	0.2283	6.3287	1.705	3.1608	20	163	0.366724279791734	1	0
"164"	20	39	3	0	0	0	12	1	1	3.685	-0.6537	-5.1036	-0.3898	4.8172	-8.1199	7.5693	-8.3865	2.9087	-3.376	-3.4718	2.5135	-0.6338	4.6806	-1.0274	5.5995	0.372	-2.3362	-3.4523	-2.5235	10.7171	0.2511	0.4442	0.2228	0.266	0.4463	0.2906	0.5088	0.3758	0.3008	0.2324	0.2683	0.3103	0.463	0.2927	0.2277	0.2009	0.2827	0.5205	0.4186	6.3233	1.6062	5.3023	20	164	1.3042705256413	1	0
"165"	20	37	3	-2	-3.4	0	6	-1	1	1.873	1.2632	-12.9181	1.8661	-3.4356	-6.5643	-3.5556	-5.5977	-1.8326	-1.4654	-4.1512	-10.1653	1.3167	4.3569	6.4528	-8.6058	-6.8921	-0.4946	-2.9115	-9.8105	-4.6935	0.24	0.388	0.338	0.3089	0.4185	0.5327	0.2491	0.3326	0.2606	0.4809	0.217	0.3023	0.3296	0.2265	0.3983	0.4385	0.2382	0.4212	0.2089	6.3298	1.7301	3.6068	20	165	0.627541423461951	0	1
"166"	20	16	3	-2	-3.4	1	5	-1	1	1.339	-0.0124	-3.7643	-3.0341	-8.9186	-3.3312	0.1484	-6.2805	-9.9	0.2774	-9.7912	0.3407	-2.2391	0.1675	-9.1712	-14.2285	0.5057	-1.4304	7.6165	-1.4552	-2.3304	0.333	0.333	0.333	0.333	0.333	0.333	0.333	0.333	0.333	0.333	0.333	0.333	0.333	0.333	0.333	0.333	0.333	0.333	0.333	6.327	1.651	2.99	20	166	0.291923066709035	0	1
"167"	20	47	3	1	1.7	1	5	-1	0	1.545	-0.4961	7.1527	1.9447	-3.1386	-0.5306	12.1999	-5.4864	7.3393	0.4507	3.777	-7.0649	-2.8315	3.2735	4.9132	-3.8061	5.0977	-0.4413	6.3516	-0.9053	5.8117	0.333	0.333	0.333	0.333	0.333	0.333	0.333	0.333	0.333	0.333	0.333	0.333	0.333	0.333	0.333	0.333	0.333	0.333	0.333	6.327	1.5801	3.1293	20	167	0.435023910349709	0	1
"168"	20	7	3	4	6.8	1	6	1	1	1.666	2.6927	-3.1002	7.0637	13.6997	5.6745	1.3787	13.6332	2.1399	17.1363	2.8025	5.7549	9.509	5.4858	5.5597	14.1888	9.5191	8.5576	6.8421	4.2424	4.5893	0.333	0.333	0.333	0.333	0.333	0.333	0.333	0.333	0.333	0.333	0.333	0.333	0.333	0.333	0.333	0.333	0.333	0.333	0.333	6.327	1.6888	3.3503	20	168	0.510425543744651	1	0
"169"	20	56	3	4	6.8	0	4	1	1	0.991	11.3794	11.2657	2.125	6.1442	10.54	3.5818	5.0823	16.0982	0.3814	-4.4568	2.6027	14.0224	8.1473	1.4855	8.1019	4.5785	8.4851	7.4421	11.2727	8.3178	0.2738	0.2321	0.4415	0.3643	0.2269	0.3472	0.2882	0.3246	0.3646	0.2351	0.3737	0.308	0.3543	0.4789	0.2589	0.4129	0.4578	0.3597	0.2149	6.3174	1.486	2.4912	20	169	-0.00904074465214907	1	0
"170"	20	58	3	-2	-3.4	1	5	-1	1	1.434	-3.7911	2.6898	4.2613	-3.0679	-5.8627	-4.0649	-4.7896	-5.0996	-1.3135	-5.4592	-13.0152	-9.4715	6.2717	2.1426	-2.116	-12.7041	1.4179	-5.5347	-3.8309	-4.9838	0.333	0.333	0.333	0.333	0.333	0.333	0.333	0.333	0.333	0.333	0.333	0.333	0.333	0.333	0.333	0.333	0.333	0.333	0.333	6.327	1.45	2.9017	20	170	0.360467742177429	0	1
"171"	20	18	3	0	0	1	4	-1	0	1.281	-3.1738	-2.3379	-9.028	3.1564	0.2411	-2.7809	13.4295	-4.9467	3.0476	-4.7547	-3.6107	-0.5906	-3.8374	-1.3234	8.1244	-2.096	0.8566	3.4004	2.885	1.5398	0.333	0.333	0.333	0.333	0.333	0.333	0.333	0.333	0.333	0.333	0.333	0.333	0.333	0.333	0.333	0.333	0.333	0.333	0.333	6.327	1.4587	2.7484	20	171	0.247641022914597	0	1
"172"	20	11	3	0	0	0	9	-1	1	2.518	-2.3634	3.1167	-6.6345	0.3148	2.1786	-2.7039	1.7543	-6.0908	-2.8923	-2.5786	-1.0555	-7.6875	3.3841	-3.8469	6.1181	-2.1376	2.146	2.4788	13.873	3.1512	0.3095	0.5114	0.215	0.3536	0.2184	0.2687	0.3896	0.2385	0.3236	0.2537	0.3935	0.347	0.2154	0.2605	0.5165	0.3209	0.5026	0.2989	0.3843	6.3215	1.5038	4.0358	20	172	0.923464935622155	0	1
"173"	20	33	3	1	1.7	1	5	-1	0	1.505	-3.2036	-1.4589	8.2866	-4.0669	0.1011	3.1076	1.604	-1.1852	-6.3002	-1.8565	8.825	4.7987	8.135	3.362	-1.1671	-6.7566	4.2046	3.0207	5.1444	10.6902	0.333	0.333	0.333	0.333	0.333	0.333	0.333	0.333	0.333	0.333	0.333	0.333	0.333	0.333	0.333	0.333	0.333	0.333	0.333	6.327	1.4921	3.0057	20	173	0.408792898200839	0	1
"174"	20	34	3	2	3.4	1	17	1	1	5.53	2.7926	9.0114	2.3144	0.9079	-0.4458	9.6805	1.8716	5.0496	8.3014	6.5119	-0.5794	6.332	3.9609	-3.9859	13.5964	7.189	3.5081	-3.278	-6.7275	1.9509	0.333	0.333	0.333	0.333	0.333	0.333	0.333	0.333	0.333	0.333	0.333	0.333	0.333	0.333	0.333	0.333	0.333	0.333	0.333	6.327	1.4799	7.0145	20	174	1.71018781553424	1	0
"175"	20	62	3	2	3.4	1	4	-1	0	1.16	0.9852	-4.7585	0.2508	4.8256	2.5986	0.4316	5.5088	4.7598	11.3333	-0.2387	-2.0965	5.0721	-1.2216	12.407	-0.2704	14.7403	1.6516	4.6682	2.8468	3.9589	0.333	0.333	0.333	0.333	0.333	0.333	0.333	0.333	0.333	0.333	0.333	0.333	0.333	0.333	0.333	0.333	0.333	0.333	0.333	6.327	1.5686	2.7442	20	175	0.148420005118273	0	1
"176"	20	5	3	1	1.7	1	6	1	1	1.812	5.9138	3.6484	9.0351	8.7047	-0.0661	-2.0733	0.8089	4.3529	-0.2312	4.3602	-5.5923	0.7477	-7.0841	3.0609	-2.673	-5.4564	-1.3142	0.2733	5.7569	11.5451	0.333	0.333	0.333	0.333	0.333	0.333	0.333	0.333	0.333	0.333	0.333	0.333	0.333	0.333	0.333	0.333	0.333	0.333	0.333	6.327	1.4252	3.2463	20	176	0.594431207620788	1	0
"177"	20	9	3	-2	-3.4	0	3	-1	1	0.94	-5.3196	-5.5969	-11.4633	-7.9455	-12.2932	3.2904	0.3509	4.8408	-6.2906	-7.3645	-4.8626	-7.4667	-4.2666	0.2806	-1.6523	-1.404	-5.2077	-2.7915	1.7137	5.275	0.2089	0.4071	0.5304	0.4439	0.2642	0.383	0.2043	0.2733	0.2098	0.3675	0.3002	0.3411	0.4459	0.4129	0.2452	0.3813	0.2171	0.3277	0.3539	6.3176	1.5492	2.4909	20	177	-0.0618754037180875	0	1
"178"	20	10	3	-1	-1.7	0	5	-1	1	1.732	2.1001	-4.3292	-2.5945	-3.9527	-5.9145	-4.2318	2.3746	6.6382	-2.3612	13.423	-3.5554	-3.6854	-4.7153	-5.5976	0.2013	0.319	-4.8094	-2.316	-9.2335	-1.5551	0.2807	0.5145	0.3237	0.2323	0.419	0.2515	0.2247	0.3509	0.4699	0.3476	0.3878	0.2417	0.2092	0.4013	0.3193	0.3652	0.246	0.3146	0.4241	6.3238	1.6507	3.383	20	178	0.549276810140243	0	1
"179"	20	13	3	2	3.4	0	6	1	1	1.807	1.2615	0.6673	2.2181	8.6343	10.4117	16.0714	-6.6414	2.0681	6.7134	6.0778	-0.5633	4.5834	5.4349	-1.9981	1.9628	6.333	2.5747	0.6498	-0.9089	2.3704	0.3649	0.2764	0.3686	0.2254	0.2759	0.3887	0.3392	0.2541	0.3848	0.2746	0.4042	0.251	0.3178	0.5108	0.2359	0.4275	0.3501	0.4642	0.2192	6.3334	1.7032	3.5079	20	179	0.591668011610091	1	0
"180"	20	57	3	-4	-6.8	1	4	-1	1	1.172	-6.8218	0.3167	-7.519	-6.685	-6.9184	-0.4365	-6.5282	-6.0384	-13.5176	3.0044	-12.606	-14.0743	-8.3448	-3.9134	-12.1053	-11.1903	-8.9109	1.6081	-5.9243	-10.2937	0.333	0.333	0.333	0.333	0.333	0.333	0.333	0.333	0.333	0.333	0.333	0.333	0.333	0.333	0.333	0.333	0.333	0.333	0.333	6.327	1.4568	2.6389	20	180	0.158711691154821	0	1
"181"	20	31	3	-1	-1.7	1	3	-1	1	0.908	-2.6113	-16.2422	-2.5188	-1.5122	3.4734	3.2541	-0.4238	-2.6741	4.9336	-6.5417	-4.5628	-1.8636	-10.3601	0.2748	-0.2939	2.5911	-1.039	3.6435	-3.4526	0.4891	0.333	0.333	0.333	0.333	0.333	0.333	0.333	0.333	0.333	0.333	0.333	0.333	0.333	0.333	0.333	0.333	0.333	0.333	0.333	6.327	1.6092	2.5249	20	181	-0.0965109003808437	0	1
"182"	20	2	3	-2	-3.4	1	4	-1	1	1.27	-2.3797	3.505	-3.1265	-2.1737	-5.7548	2.2086	-3.459	-5.2859	3.8993	0.7146	2.0064	-9.8612	-3.3378	-2.3857	-10.3981	-5.8042	-16.817	-1.8948	-2.0381	-3.6282	0.333	0.333	0.333	0.333	0.333	0.333	0.333	0.333	0.333	0.333	0.333	0.333	0.333	0.333	0.333	0.333	0.333	0.333	0.333	6.327	1.5706	2.8378	20	182	0.2390169004705	0	1
"183"	20	64	3	-4	-6.8	0	3	-1	1	1.26	-3.687	-4.5132	-8.4795	-16.3603	-10.4581	-2.3424	-10.818	-13.113	1.2003	-0.884	-7.0387	-7.0737	-6.851	2.6367	-13.5466	-10.9058	-4.848	-1.5338	-7.6334	-9.2569	0.2891	0.4651	0.5234	0.2606	0.3567	0.4679	0.3601	0.2416	0.301	0.3956	0.2028	0.3318	0.2934	0.265	0.3491	0.2872	0.2226	0.462	0.2448	6.3199	1.4803	2.7602	20	183	0.231111720963387	0	1
"184"	20	54	3	1	1.7	0	6	-1	0	1.846	4.4489	-3.7095	4.0809	2.3692	0.0472	8.407	4.5343	-3.6144	6.2339	-4.9116	-3.2063	-1.1385	7.4844	-4.9204	-1.3244	7.2273	5.6255	-3.7285	-0.5619	10.1438	0.419	0.2054	0.318	0.2703	0.3402	0.4492	0.2145	0.5215	0.212	0.2725	0.4574	0.2381	0.4959	0.4611	0.2992	0.4248	0.2562	0.2196	0.2525	6.3277	1.5281	3.3965	20	184	0.61302113608066	0	1
"185"	20	32	3	0	0	1	4	-1	1	1.133	-0.9512	2.5833	1.992	0.8234	8.5049	0.9443	-1.4087	0.6367	-11.9483	7.9286	0.8105	2.5096	-6.4399	4.9622	-0.6477	0.6081	-3.1009	3.6299	-8.3374	-3.7144	0.333	0.333	0.333	0.333	0.333	0.333	0.333	0.333	0.333	0.333	0.333	0.333	0.333	0.333	0.333	0.333	0.333	0.333	0.333	6.327	1.6076	2.7507	20	185	0.124868982045869	0	1
"186"	20	52	3	-1	-1.7	0	7	-1	1	2.144	-2.7112	4.3355	-9.3621	-2.4989	-3.4906	-1.6695	-1.5205	-6.8069	4.0706	-9.979	7.9533	-6.4448	3.1218	-2.422	0.4149	4.5548	-2.2127	-9.3284	1.0119	-2.3331	0.4725	0.2061	0.5026	0.3642	0.2025	0.2383	0.2793	0.2035	0.3889	0.3542	0.4755	0.2319	0.2034	0.2942	0.3348	0.5201	0.3099	0.2314	0.5158	6.329	1.4534	3.611	20	186	0.762673243208556	0	1
"187"	20	19	3	1	1.7	1	6	1	1	1.795	1.3992	11.7414	8.5686	4.4587	-5.6297	3.3121	2.7947	-2.8543	1.9833	-2.6361	2.987	6.0391	3.0396	-2.1928	-2.9903	-8.4878	4.6837	2.3297	7.4787	-2.8478	0.333	0.333	0.333	0.333	0.333	0.333	0.333	0.333	0.333	0.333	0.333	0.333	0.333	0.333	0.333	0.333	0.333	0.333	0.333	6.327	1.4809	3.2957	20	187	0.585005021940242	1	0
"188"	20	24	3	-1	-1.7	0	10	-1	1	3.335	-0.4057	5.1721	-8.4154	8.9976	-0.7983	-2.003	-12.0084	-5.8278	-0.9786	-0.22	-2.8342	4.5294	-6.1677	-2.5182	-8.4706	-2.279	-1.2441	0.5445	1.6923	-1.2573	0.205	0.4694	0.3918	0.2936	0.5152	0.4705	0.2271	0.4448	0.2541	0.2795	0.306	0.227	0.4133	0.3555	0.2038	0.349	0.2329	0.3938	0.2995	6.3319	1.5679	4.9191	20	188	1.20447267936759	0	1
"189"	20	27	3	2	3.4	0	7	1	1	2.175	-0.0122	11.7857	2.521	-1.0332	10.4222	7.0509	-1.158	8.1109	3.5405	-7.1369	6.2699	7.3037	0.7783	10.6413	5.1159	1.4011	-2.7379	0.6481	3.1984	0.6519	0.3848	0.2365	0.2906	0.4239	0.4822	0.2223	0.4247	0.462	0.2125	0.2779	0.2026	0.2726	0.4141	0.3348	0.2967	0.3586	0.2371	0.4222	0.3705	6.3265	1.5845	3.7756	20	189	0.777028664540647	1	0
"190"	20	48	3	2	3.4	1	3	1	1	0.928	8.2213	8.3658	9.3712	2.3355	7.5135	-6.1645	5.5616	-6.1477	5.0789	1.7826	-1.3422	6.4921	0.749	2.6289	4.6404	0.2364	12.0085	-3.483	2.2984	7.8324	0.333	0.333	0.333	0.333	0.333	0.333	0.333	0.333	0.333	0.333	0.333	0.333	0.333	0.333	0.333	0.333	0.333	0.333	0.333	6.327	1.6368	2.5785	20	190	-0.0747235461959364	1	0
"191"	20	23	3	-2	-3.4	0	6	-1	1	1.902	1.4985	-2.9382	-8.2199	-3.6498	-7.2262	0.1356	0.2283	-4.9155	-13.3415	2.4654	5.0643	-5.4475	-11.3134	-3.3298	4.4469	-6.9906	-2.3047	-0.1364	-9.0383	-3.1214	0.229	0.4869	0.3897	0.4944	0.3003	0.4576	0.2135	0.2928	0.2005	0.4945	0.4338	0.3651	0.2055	0.3267	0.2974	0.446	0.2193	0.2695	0.2088	6.3312	1.4183	3.3196	20	191	0.642905964123199	0	1
"192"	20	29	3	-4	-6.8	1	5	-1	1	1.465	-8.4508	-4.3359	-6.9211	-18.2404	-12.8891	-4.3726	-8.6663	-18.8214	-4.013	-4.3747	-8.3198	-5.5354	-8.3905	-7.2942	-0.8484	-0.8794	-4.1603	-5.0874	-1.6721	-2.1856	0.333	0.333	0.333	0.333	0.333	0.333	0.333	0.333	0.333	0.333	0.333	0.333	0.333	0.333	0.333	0.333	0.333	0.333	0.333	6.327	1.5366	2.9993	20	192	0.381855242469031	0	1
"193"	20	70	3	4	6.8	0	4	1	1	1.063	4.067	9.6109	10.5517	2.6713	7.7175	12.7642	6.3636	-0.7677	2.2584	10.2271	0.313	9.3387	7.8067	8.4642	0.9788	5.5593	7.1399	0.9376	17.4328	14.0452	0.3851	0.2174	0.3432	0.2486	0.3698	0.2371	0.5057	0.229	0.3464	0.2749	0.2013	0.5193	0.4535	0.2743	0.3911	0.483	0.3643	0.2083	0.2746	6.3269	1.7088	2.7803	20	193	0.0610950993598108	1	0
"194"	20	46	3	0	0	1	6	1	0	1.737	-1.3637	2.2239	5.7531	-3.1555	8.7079	-4.9041	5.4064	-4.5591	-2.8876	2.1997	-4.7736	-1.5711	-6.4795	-1.6237	0.9097	7.9212	-1.3285	-2.8984	-6.5745	9.2165	0.333	0.333	0.333	0.333	0.333	0.333	0.333	0.333	0.333	0.333	0.333	0.333	0.333	0.333	0.333	0.333	0.333	0.333	0.333	6.327	1.4571	3.204	20	194	0.552159487258968	1	0
"195"	20	68	3	1	1.7	0	4	-1	0	1.389	2.6766	3.9006	2.6803	-3.4347	12.4692	3.392	-1.1702	-1.0019	3.3557	-10.8157	6.951	8.891	1.1065	2.2316	2.6923	1.5486	1.6435	-0.7744	-4.819	2.175	0.492	0.3058	0.2437	0.4179	0.3812	0.2378	0.4519	0.276	0.2274	0.4036	0.2475	0.4389	0.2172	0.3465	0.4324	0.3244	0.2392	0.3589	0.2862	6.3285	1.577	2.973	20	195	0.328584063772207	0	1
"196"	20	25	3	0	0	0	7	-1	0	2.386	-0.1364	8.0696	-2.0697	-1.4357	-2.1672	5.5994	-5.8443	-5.5912	0.1341	3.492	11.8763	3.2853	-5.5869	-0.8116	0.285	-9.8439	-0.4106	3.3286	-0.461	-1.7444	0.255	0.3832	0.3565	0.2678	0.3411	0.4559	0.5097	0.274	0.4483	0.3709	0.3141	0.2225	0.329	0.5043	0.2009	0.2654	0.2057	0.2322	0.3981	6.3344	1.6685	4.0529	20	196	0.869618323675724	0	1
"197"	20	22	3	-4	-6.8	0	5	-1	1	1.837	-9.4966	-8.2013	1.0553	-10.7394	-7.9326	4.8142	-10.739	-3.8929	-5.8366	-2.5361	-0.422	-5.1178	-12.3952	-7.5684	-8.8953	-5.5703	-4.7767	-16.0366	-11.263	-11.4486	0.3829	0.4907	0.4505	0.3667	0.2817	0.2542	0.2151	0.4051	0.3696	0.2042	0.3114	0.284	0.2005	0.4679	0.4081	0.4357	0.2218	0.3182	0.2589	6.3271	1.4413	3.2874	20	197	0.608133806232989	0	1
"198"	20	38	3	-1	-1.7	0	10	-1	1	3.217	-4.9643	5.9757	-5.0959	0.9746	-9.0343	3.467	-3.0179	-4.5339	-0.6811	1.5872	3.8065	-2.5556	-0.8647	-5.7112	4.5356	-8.5291	-3.4996	-10.1212	-1.9237	7.8244	0.3433	0.374	0.4906	0.2482	0.4716	0.2031	0.3233	0.3674	0.3219	0.2518	0.3723	0.2779	0.4089	0.2762	0.2115	0.3602	0.2654	0.3592	0.4055	6.3322	1.5819	4.8175	20	198	1.16844924825689	0	1
"199"	20	60	3	0	0	1	9	-1	0	2.816	4.7944	-7.6991	0.2831	3.0822	3.8045	2.3721	-6.427	-4.4467	-0.1056	-5.3699	5.8439	-2.3996	-2.6968	-2.6769	0.0025	1.0057	1.5937	13.9364	-1.6919	-2.7636	0.333	0.333	0.333	0.333	0.333	0.333	0.333	0.333	0.333	0.333	0.333	0.333	0.333	0.333	0.333	0.333	0.333	0.333	0.333	6.327	1.4413	4.2671	20	199	1.0353174382958	0	1
"200"	20	30	3	-2	-3.4	1	7	1	0	2.094	-6.816	-13.1407	4.1134	-4.18	2.8845	1.9089	-5.2285	-6.5517	0.2921	-0.7702	-7.6906	-10.1084	-1.7888	6.3901	-4.2447	-0.2595	-4.0675	-4.6341	-9.1451	-6.9448	0.333	0.333	0.333	0.333	0.333	0.333	0.333	0.333	0.333	0.333	0.333	0.333	0.333	0.333	0.333	0.333	0.333	0.333	0.333	6.327	1.4152	3.528	20	200	0.739076112448345	1	0
"201"	20	45	3	-1	-1.7	1	6	-1	1	1.948	-1.6457	-7.9603	8.3634	-0.5845	-3.1554	-2.8561	2.4257	-4.5817	-7.225	-6.6649	-7.4467	-0.563	-2.7348	-10.074	6.4177	3.3146	0.4016	-4.5078	-0.1354	4.7625	0.333	0.333	0.333	0.333	0.333	0.333	0.333	0.333	0.333	0.333	0.333	0.333	0.333	0.333	0.333	0.333	0.333	0.333	0.333	6.327	1.4216	3.3824	20	201	0.666803205220343	0	1
"202"	20	28	3	4	6.8	0	2	1	1	0.804	9.1836	6.0621	-2.4932	12.8898	6.5893	6.035	9.678	8.2759	0.2502	5.0664	11.8847	8.5647	6.8227	5.2007	14.6684	-3.1638	13.4662	5.2933	2.1344	11.1374	0.3839	0.4796	0.4298	0.2659	0.2374	0.344	0.2735	0.4437	0.4101	0.3715	0.3371	0.2626	0.2893	0.2404	0.3133	0.2565	0.5229	0.2566	0.2004	6.3183	1.5746	2.3881	20	202	-0.218156009803171	1	0
"203"	20	66	3	-1	-1.7	0	6	-1	1	1.49	-1.6386	-2.1503	0.7754	-4.2782	1.4095	4.1744	5.0731	-5.0264	2.5703	-9.3525	-4.1222	0.105	9.4915	-5.8635	-1.7786	-4.8272	-3.6484	-10.3318	-5.9097	1.2547	0.236	0.2006	0.3362	0.2536	0.3157	0.3504	0.2117	0.2521	0.4989	0.3874	0.3077	0.4242	0.3923	0.4588	0.2683	0.3678	0.5029	0.3072	0.2612	6.3329	1.4594	2.9575	20	203	0.398776119957368	0	1
"204"	20	55	3	2	3.4	0	8	-1	0	1.982	-0.1685	6.6195	-3.7902	-1.7209	7.9933	2.9987	3.1148	10.05	0.985	10.6491	0.1012	-0.1308	8.7664	9.1716	5.0495	5.1501	8.599	0.9799	2.3773	-8.1741	0.2235	0.2531	0.2278	0.2	0.448	0.3584	0.2426	0.4982	0.471	0.3784	0.2529	0.3516	0.324	0.2968	0.3706	0.2913	0.4916	0.3841	0.2586	6.3224	1.6681	3.65	20	204	0.684106435907796	0	1
"205"	20	26	3	1	1.7	0	7	-1	0	2.513	3.7171	3.1879	-10.1499	3.0647	-2.188	8.7981	-0.6361	-1.7252	4.198	-5.257	-2.5387	4.6743	-0.6784	8.118	5.3293	10.3118	0.3659	0.7491	5.5246	-0.093	0.5035	0.4027	0.3689	0.3168	0.2714	0.4514	0.3566	0.2417	0.3013	0.4372	0.2654	0.2335	0.2973	0.242	0.2122	0.341	0.4538	0.2556	0.3677	6.3201	1.5833	4.0976	20	205	0.921477258561455	0	1
"206"	20	12	3	1	1.7	0	5	1	1	1.674	3.1758	9.0117	6.6574	5.4828	7.4361	-4.2105	6.7034	5.4265	-4.8309	-8.7139	0.0729	3.8531	-6.0252	6.6113	4.6275	0.7395	-4e-04	-1.9664	-0.0198	-0.7425	0.2518	0.3785	0.461	0.4202	0.5181	0.2237	0.2564	0.2083	0.4269	0.2508	0.3374	0.2044	0.495	0.4071	0.3454	0.2493	0.3674	0.2371	0.2877	6.3266	1.5404	3.2252	20	206	0.515215972067284	1	0
"207"	20	21	3	4	6.8	1	4	1	1	1.081	2.7479	3.6786	-0.0873	2.9043	0.2959	7.616	7.9914	9.3402	13.5822	14.1539	6.5375	6.4022	10.494	9.2245	2.5152	5.1962	-2.7572	12.068	11.0962	13.0343	0.333	0.333	0.333	0.333	0.333	0.333	0.333	0.333	0.333	0.333	0.333	0.333	0.333	0.333	0.333	0.333	0.333	0.333	0.333	6.327	1.4496	2.5313	20	207	0.0778865386570712	1	0
"208"	20	63	3	4	6.8	1	6	1	1	1.722	4.6175	5.095	7.4223	0.3927	0.4274	0.4541	2.5857	4.5632	4.9824	12.1347	15.6359	9.6653	-2.2636	7.1978	7.3464	9.8772	9.2866	7.8103	14.9175	13.1201	0.333	0.333	0.333	0.333	0.333	0.333	0.333	0.333	0.333	0.333	0.333	0.333	0.333	0.333	0.333	0.333	0.333	0.333	0.333	6.327	1.5213	3.2393	20	208	0.543486406005539	1	0
"209"	20	50	3	-4	-6.8	0	5	-1	1	1.352	-7.147	-10.0931	-13.8003	-6.8753	-6.4694	2.1191	-7.6484	-6.9248	-16.6271	-7.8443	-9.0471	2.1082	-5.5604	1.2872	-3.7106	-0.6261	-9.0083	-6.8571	-12.9554	-8.5471	0.419	0.2319	0.3339	0.2328	0.4325	0.4002	0.2164	0.3706	0.2266	0.5258	0.3868	0.2915	0.4086	0.2867	0.3628	0.2284	0.3096	0.201	0.4636	6.3286	1.6493	3.0032	20	209	0.301584977620772	0	1
"210"	20	65	3	-2	-3.4	0	6	-1	1	1.557	0.6583	-11.4361	-6.0255	-4.0517	-2.647	-3.7361	-12.1405	-5.1432	3.3078	-3.3933	-3.835	-3.2016	-10.8281	-8.8193	1.3699	-4.2219	0.3574	7.1999	-2.1556	-0.7135	0.2312	0.4645	0.3096	0.2119	0.2953	0.3216	0.4486	0.3933	0.3159	0.4903	0.3346	0.2082	0.2365	0.3378	0.2869	0.3629	0.3373	0.5004	0.2471	6.3339	1.5857	3.1577	20	210	0.442760892851861	0	1
"211"	20	6	4	2	3.4	1	5	-1	0	1.543	-0.5205	1.8975	5.808	2.8386	0.014	0.0397	7.2566	9.9036	10.2713	1.2505	10.073	1.8351	7.2712	4.7492	10.5397	-8.9346	2.5389	-0.1489	-4.0415	4.3958	0.333	0.333	0.333	0.333	0.333	0.333	0.333	0.333	0.333	0.333	0.333	0.333	0.333	0.333	0.333	0.333	0.333	0.333	0.333	6.327	1.4891	3.0437	20	211	0.433728573381024	0	1
"212"	20	36	4	-4	-6.8	0	4	-1	1	1.109	-4.1611	-9.9112	0.0101	-10.9853	-14.0973	-4.3487	2.4673	-9.9907	-6.192	-4.8773	-8.4163	-9.1787	-4.8356	-12.4744	-15.5528	-6.5005	-6.4996	1.1832	-0.0785	-11.6547	0.3018	0.3418	0.2673	0.2206	0.2541	0.3012	0.5214	0.3012	0.3715	0.2634	0.3491	0.5216	0.2398	0.4725	0.2938	0.2307	0.4397	0.3746	0.2669	6.3329	1.552	2.676	20	212	0.10345870836823	0	1
"213"	20	62	4	2	3.4	1	6	1	1	1.968	-0.6617	7.6046	-5.1104	9.0129	5.5799	7.0598	8.2806	0.9367	0.0509	3.7109	2.2968	11.3124	-3.3248	2.9537	2.4631	-3.8712	4.2361	-1.1311	4.3606	12.5971	0.333	0.333	0.333	0.333	0.333	0.333	0.333	0.333	0.333	0.333	0.333	0.333	0.333	0.333	0.333	0.333	0.333	0.333	0.333	6.327	1.4703	3.4517	20	213	0.677017798630062	1	0
"214"	20	50	4	-4	-6.8	0	5	-1	1	1.662	-10.0108	-2.429	-8.6687	-8.8303	-4.7428	1.2239	-10.7471	-4.261	-13.7597	-8.7326	-8.1272	-8.6319	-13.8498	-10.1308	-6.0984	-2.5714	-10.5983	6.2483	-6.7689	-3.2181	0.5272	0.3653	0.2298	0.5155	0.4408	0.2187	0.25	0.32	0.3742	0.2928	0.2491	0.2828	0.2565	0.282	0.3672	0.2915	0.3868	0.2442	0.4274	6.322	1.4471	3.1124	20	214	0.508021696433256	0	1
"215"	20	39	4	0	0	0	6	1	0	1.73	1.8285	-1.7734	8.5191	-5.4383	-3.1295	-10.1554	-1.1981	4.4914	-3.7689	-2.9829	1.5944	5.8689	5.2017	3.034	6.8452	-5.6231	4.9148	-0.797	-5.7764	-3.4407	0.3948	0.225	0.3978	0.3213	0.2506	0.4181	0.2025	0.241	0.4499	0.5193	0.4127	0.3026	0.3679	0.2076	0.3501	0.2958	0.3819	0.3153	0.2815	6.3357	1.5376	3.2807	20	215	0.548121408509688	1	0
"216"	20	29	4	-4	-6.8	1	4	-1	1	1.299	-2.372	-2.9825	-14.6893	-0.7497	-10.4687	-0.1535	-4.2715	-3.6393	-7.6201	-9.5471	-11.165	-11.9804	-17.8594	-4.8482	-2.8391	-13.0587	-4.069	-6.8066	-7.1524	-1.6243	0.333	0.333	0.333	0.333	0.333	0.333	0.333	0.333	0.333	0.333	0.333	0.333	0.333	0.333	0.333	0.333	0.333	0.333	0.333	6.327	1.5227	2.8336	20	216	0.261594737688462	0	1
"217"	20	33	4	1	1.7	1	10	1	1	3.131	0.8907	-0.5084	-1.0605	3.5235	1.6642	9.5785	3.1801	-0.1476	0.0608	-5.2157	4.4532	10.9771	-6.122	0.3514	-1.3148	-1.5143	6.2593	7.1604	8.7207	-5.2225	0.333	0.333	0.333	0.333	0.333	0.333	0.333	0.333	0.333	0.333	0.333	0.333	0.333	0.333	0.333	0.333	0.333	0.333	0.333	6.327	1.6912	4.8313	20	217	1.14135244234427	1	0
"218"	20	20	4	2	3.4	1	4	1	1	1.282	7.418	10.8942	7.4312	2.8825	11.3555	0.5757	1.6311	4.8923	-5.0393	6.5831	3.5639	0.6446	9.4038	3.0461	-1.9088	1.3189	-6.023	-3.7403	5.9943	5.4606	0.333	0.333	0.333	0.333	0.333	0.333	0.333	0.333	0.333	0.333	0.333	0.333	0.333	0.333	0.333	0.333	0.333	0.333	0.333	6.327	1.4318	2.7157	20	218	0.248421358498478	1	0
"219"	20	60	4	0	0	1	5	-1	1	1.63	-2.7651	-0.1507	8.7545	-0.4364	0.6512	5.2392	-1.8588	-6.1837	-4.6331	-8.6281	-0.2088	-4.5394	-3.1206	9.4892	2.5891	8.7355	-4.1062	0.0768	-1.2255	4.0011	0.333	0.333	0.333	0.333	0.333	0.333	0.333	0.333	0.333	0.333	0.333	0.333	0.333	0.333	0.333	0.333	0.333	0.333	0.333	6.327	1.6862	3.3144	20	219	0.488580014818671	0	1
"220"	20	42	4	4	6.8	0	5	1	1	1.713	4.0157	6.1728	6.3818	13.5696	13.0782	4.0798	3.3327	11.2063	9.8683	7.8823	11.5783	10.2494	7.5168	6.0762	3.2092	-7.2046	3.1471	9.3484	1.1224	11.1271	0.2586	0.4618	0.4024	0.2318	0.4742	0.2606	0.4344	0.5016	0.2089	0.3489	0.2157	0.3076	0.2165	0.2902	0.2051	0.4848	0.4119	0.3673	0.2522	6.3346	1.6111	3.3468	20	220	0.538246219341983	1	0
"221"	20	66	4	-1	-1.7	0	6	-1	1	1.762	0.8196	-5.7932	-2.0031	7.2424	1.3027	-12.2569	0.6936	-6.8262	-0.7713	0.1212	-0.7136	-1.172	-3.6291	-4.7013	3.2344	1.6073	-4.1954	5.8574	-11.9431	-0.4252	0.4952	0.3718	0.2331	0.2856	0.2497	0.4365	0.3889	0.2484	0.2089	0.4019	0.2631	0.4605	0.4043	0.3212	0.2378	0.3823	0.2691	0.3007	0.373	6.332	1.4949	3.2795	20	221	0.566449527513988	0	1
"222"	20	35	4	4	6.8	1	5	1	1	1.366	5.1455	9.1944	3.4432	11.3651	14.8516	7.139	-2.0012	12.0239	2.9067	4.7802	4.3289	14.1767	8.8381	5.6906	10.4537	11.3521	4.4271	-3.4882	8.6101	3.0505	0.333	0.333	0.333	0.333	0.333	0.333	0.333	0.333	0.333	0.333	0.333	0.333	0.333	0.333	0.333	0.333	0.333	0.333	0.333	6.327	1.7001	3.084	20	222	0.311886761148598	1	0
"223"	20	18	4	0	0	1	5	-1	1	1.655	-3.6777	-9.3022	2.1682	-1.2481	7.339	1.3105	-0.6858	-1.9704	-5.3452	-9.9067	11.9832	3.6764	-0.4252	1.1646	0.723	-0.2118	5.1643	1.3176	1.422	-2.2297	0.333	0.333	0.333	0.333	0.333	0.333	0.333	0.333	0.333	0.333	0.333	0.333	0.333	0.333	0.333	0.333	0.333	0.333	0.333	6.327	1.619	3.2892	20	223	0.503801008829026	0	1
"224"	20	5	4	1	1.7	1	7	-1	0	2.265	3.7273	-5.1843	8.8604	2.062	-3.1892	-7.6284	-1.5758	2.0334	3.7982	-2.5395	-4.2647	3.0267	8.1296	4.7079	1.6193	5.5283	12.6056	3.1825	0.3781	-1.813	0.333	0.333	0.333	0.333	0.333	0.333	0.333	0.333	0.333	0.333	0.333	0.333	0.333	0.333	0.333	0.333	0.333	0.333	0.333	6.327	1.6439	3.9161	20	224	0.817574758934997	0	1
"225"	20	54	4	1	1.7	0	10	-1	0	3.15	3.2659	7.1291	3.9985	5.5855	2.0057	12.2379	3.7072	-7.6044	-0.8281	-5.3391	2.0115	-0.5361	-2.7741	-1.1845	-1.9714	-3.5207	-1.1943	8.5308	2.196	7.5857	0.4036	0.2145	0.2567	0.3722	0.2035	0.2891	0.4437	0.3707	0.2733	0.3955	0.2931	0.2412	0.2046	0.2405	0.4764	0.3671	0.5082	0.4442	0.3207	6.3187	1.6813	4.8344	20	225	1.14740245283754	0	1
"226"	20	46	4	0	0	1	9	-1	1	2.693	-0.4845	3.118	-2.3474	0.1409	-0.5289	-1.8443	0.6476	3.5459	-5.7587	-5.059	-0.0931	2.6252	1.8315	5.1181	5.3476	-7.4421	-13.1614	6.9891	0.381	5.4096	0.333	0.333	0.333	0.333	0.333	0.333	0.333	0.333	0.333	0.333	0.333	0.333	0.333	0.333	0.333	0.333	0.333	0.333	0.333	6.327	1.6391	4.3437	20	226	0.990655813829462	0	1
"227"	20	68	4	1	1.7	0	9	-1	0	3.062	-0.0766	1.7984	2.3423	1.5038	0.4909	-6.5386	-1.0645	3.5364	8.8764	-1.2742	4.2959	-0.074	-3.6286	14.9689	-3.103	3.476	-5.5596	6.9332	6.8774	2.0513	0.4402	0.2419	0.3255	0.2368	0.4835	0.2947	0.3705	0.4806	0.312	0.2232	0.3292	0.2013	0.2775	0.4267	0.3507	0.3905	0.237	0.4115	0.2918	6.325	1.6084	4.6793	20	227	1.11906829723549	0	1
"228"	20	64	4	-4	-6.8	0	4	-1	1	1.188	-11.7331	-10.7347	-4.8303	-15.0404	-4.1296	-11.1713	-12.6889	-6.3102	-4.0047	-3.7427	-10.6773	-2.3995	-9.3951	2.7682	-14.1849	-5.4627	-7.2571	-4.0593	3.0995	-4.9738	0.3253	0.4171	0.274	0.4088	0.2395	0.4687	0.3014	0.2732	0.2002	0.3202	0.4736	0.2876	0.2024	0.412	0.2174	0.3173	0.3844	0.4417	0.3663	6.3312	1.6331	2.8225	20	228	0.172271220940453	0	1
"229"	20	49	4	4	6.8	1	4	1	1	1.189	7.9982	1.7073	13.4064	7.688	16.2819	8.2233	8.4242	13.4842	7.5404	10.0266	-4.391	2.03	8.3447	0.9694	8.4023	0.1638	8.5894	4.6191	4.6932	7.9377	0.333	0.333	0.333	0.333	0.333	0.333	0.333	0.333	0.333	0.333	0.333	0.333	0.333	0.333	0.333	0.333	0.333	0.333	0.333	6.327	1.4012	2.59	20	229	0.173112617708645	1	0
"230"	20	12	4	1	1.7	0	10	1	1	3.151	6.4753	5.8906	8.6046	-7.7609	-0.9605	-1.1474	-0.1134	-1.2902	-1.0698	-4.7953	9.0979	4.7507	4.3293	-6.9874	1.1415	-0.7269	5.4708	7.9057	2.1164	1.9427	0.3494	0.3202	0.4499	0.2129	0.2605	0.2934	0.2434	0.3714	0.2217	0.4967	0.3785	0.5326	0.2688	0.2241	0.4181	0.216	0.402	0.4579	0.2169	6.3343	1.5095	4.6684	20	230	1.14771986277514	1	0
"231"	20	9	4	-2	-3.4	0	5	1	0	1.524	-4.6757	-0.5084	0.9147	-8.4442	1.4771	-10.0237	-4.0366	-8.9415	-13.7181	0.0835	-3.0356	-2.9163	5.039	-2.4874	-2.8797	3.963	-2.3262	-5.0032	-12.0726	-0.0839	0.3378	0.2132	0.2504	0.4454	0.3163	0.2706	0.4079	0.5167	0.3833	0.333	0.2699	0.3256	0.2491	0.314	0.2282	0.4254	0.2998	0.514	0.2343	6.3352	1.5498	3.0747	20	231	0.421338457264455	1	0
"232"	20	43	4	-4	-6.8	1	10	-1	1	3.173	-10.8386	-9.4657	-2.0307	-0.4965	-6.3983	-2.1864	-2.1886	-8.0224	-0.0195	1.7927	-11.9752	-11.1821	-14.3497	-1.8941	-9.139	-8.4785	-5.8439	-13.6624	-6.4431	-12.6525	0.333	0.333	0.333	0.333	0.333	0.333	0.333	0.333	0.333	0.333	0.333	0.333	0.333	0.333	0.333	0.333	0.333	0.333	0.333	6.327	1.5407	4.7234	20	232	1.15467751260106	0	1
"233"	20	59	4	-1	-1.7	1	6	-1	1	1.73	1.7804	-1.9852	-8.9828	-2.903	-1.4276	-6.0961	-0.9903	-1.9622	1.9556	-1.8071	-1.7143	0.0506	-7.3843	-13.9612	1.2358	10.0033	3.7855	0.3973	-2.1252	-1.3244	0.333	0.333	0.333	0.333	0.333	0.333	0.333	0.333	0.333	0.333	0.333	0.333	0.333	0.333	0.333	0.333	0.333	0.333	0.333	6.327	1.6548	3.3975	20	233	0.548121408509688	0	1
"234"	20	57	4	-4	-6.8	1	7	-1	1	2.177	-8.4612	3.4128	-0.6673	-2.8612	0.8996	-3.9001	-14.0322	-7.5939	-6.0335	-9.2637	-11.536	-8.7756	-9.9336	-12.1397	-4.4605	-5.9338	-14.6249	-11.4877	-2.5312	-6.8391	0.333	0.333	0.333	0.333	0.333	0.333	0.333	0.333	0.333	0.333	0.333	0.333	0.333	0.333	0.333	0.333	0.333	0.333	0.333	6.327	1.5353	3.7277	20	234	0.77794778225241	0	1
"235"	20	37	4	-2	-3.4	0	5	-1	1	1.449	-6.445	-9.3704	1.538	1.2542	-12.8316	-9.9858	6.9395	-3.1838	-8.7598	-7.1284	2.5386	-2.5379	1.3113	0.5632	-6.4295	-2.4311	-2.6663	-6.5102	1.3535	-4.0952	0.3577	0.2654	0.3655	0.4086	0.2533	0.3097	0.2379	0.3542	0.2022	0.453	0.3712	0.2767	0.3646	0.2801	0.3129	0.5235	0.3066	0.2789	0.4122	6.3343	1.6647	3.1335	20	235	0.370873663338545	0	1
"236"	20	3	4	-1	-1.7	1	5	-1	1	1.588	0.5532	-13.4365	7.7712	-0.9446	-5.2947	-4.0678	1.2224	5.3567	-0.3861	-3.4625	-4.2826	-6.1216	-6.5914	-1.1154	0.5133	5.4629	3.5026	-5.9856	-3.2484	-3.1611	0.333	0.333	0.333	0.333	0.333	0.333	0.333	0.333	0.333	0.333	0.333	0.333	0.333	0.333	0.333	0.333	0.333	0.333	0.333	6.327	1.412	3.0054	20	236	0.462475362824944	0	1
"237"	20	10	4	-1	-1.7	0	3	-1	1	0.873	-4.7586	-0.5124	-4.1904	-0.6706	-4.0662	1.5918	3.4675	-4.4378	-4.839	-4.043	3.6888	-5.7573	14.1497	-7.4269	-0.9482	-5.0205	2.2365	-5.9655	-0.4323	-4.765	0.3407	0.259	0.3882	0.2074	0.3897	0.2037	0.2454	0.4007	0.2119	0.2916	0.431	0.5181	0.2824	0.3693	0.3983	0.2321	0.361	0.4124	0.3872	6.3301	1.5435	2.4237	20	237	-0.135819723142535	0	1
"238"	20	70	4	4	6.8	0	5	1	1	1.525	2.7221	10.5537	1.4196	16.47	2.2685	8.3597	10.0724	-0.7177	9.3769	9.7593	4.3382	3.7933	0.5361	12.7311	-0.6608	4.9927	10.4381	4.5524	9.6326	14.3865	0.53	0.3014	0.3269	0.2572	0.2032	0.363	0.2263	0.3141	0.2671	0.4401	0.5011	0.2938	0.222	0.4707	0.2945	0.2121	0.51	0.3347	0.2518	6.3201	1.6402	3.1758	20	238	0.421994410059375	1	0
"239"	20	69	4	2	3.4	0	4	-1	0	1.638	-1.5318	4.7022	0.847	4.0112	2.8696	6.5379	11.3062	-6.6039	1.6655	2.6557	1.6321	5.3244	-6.5571	5.9711	7.2371	6.9816	12.6598	-1.2166	2.9048	6.5182	0.2779	0.3927	0.5019	0.4711	0.2288	0.2569	0.2118	0.2973	0.2481	0.4523	0.3332	0.4398	0.2545	0.4439	0.2894	0.2208	0.4414	0.3515	0.2202	6.3336	1.4308	3.072	20	239	0.493475985430878	0	1
"240"	20	34	4	2	3.4	1	8	-1	0	2.583	6.3332	2.2006	-4.2634	0.8431	3.8995	9.3595	2.2761	-0.8537	9.3084	4.1758	5.1001	6.7204	8.0866	-4.1851	9.9234	0.1454	-0.5646	-2.7312	-1.2364	11.9062	0.333	0.333	0.333	0.333	0.333	0.333	0.333	0.333	0.333	0.333	0.333	0.333	0.333	0.333	0.333	0.333	0.333	0.333	0.333	6.327	1.4196	4.0175	20	240	0.948951514113703	0	1
"241"	20	53	4	0	0	0	6	-1	1	1.989	0.6664	-0.1609	4.3392	-8.0096	-3.6016	-6.3095	-6.4721	3.0098	2.9026	1.7093	5.2429	-3.6213	-0.8252	2.453	11.5292	1.1652	5.51	-6.5178	-3.7842	2.3478	0.2083	0.3971	0.3005	0.4714	0.3258	0.4682	0.2691	0.363	0.255	0.3094	0.2548	0.3512	0.2146	0.3319	0.4361	0.3087	0.4659	0.2316	0.3719	6.3347	1.5686	3.5566	20	241	0.687631999871835	0	1
"242"	20	1	4	-4	-6.8	1	4	-1	1	1.321	-9.2679	-4.6673	-5.7353	-8.6022	-21.4319	-5.6237	-11.3011	-8.4546	-6.6944	-5.011	-3.4051	-6.1751	2.3777	-3.427	-3.8489	-9.6133	-3.8933	-12.5844	-9.8625	0.1973	0.333	0.333	0.333	0.333	0.333	0.333	0.333	0.333	0.333	0.333	0.333	0.333	0.333	0.333	0.333	0.333	0.333	0.333	0.333	6.327	1.4574	2.7888	20	242	0.278389025540188	0	1
"243"	20	22	4	-4	-6.8	0	4	-1	1	1.355	-8.0415	-9.5547	-13.9995	2.1002	-6.3128	-2.1778	-9.6649	-2.1099	-2.8414	0.4893	-7.2438	-11.2293	-15.9412	-8.1489	-0.6598	-4.8838	-10.5657	-6.485	-13.894	-5.0951	0.3272	0.5123	0.2637	0.53	0.2376	0.3985	0.2152	0.3709	0.2557	0.38	0.3143	0.455	0.2729	0.3757	0.2395	0.2059	0.3115	0.2606	0.4061	6.3324	1.603	2.9561	20	243	0.303801454331664	0	1
"244"	20	17	4	-1	-1.7	1	4	-1	1	1.097	-5.4973	-1.0663	-8.0743	-0.4913	-3.4947	1.8075	-8.4512	-0.3719	0.5877	-2.6609	-5.3425	9.9919	-1.3131	-0.9876	-9.4698	5.2353	-7.1893	-5.7471	2.2158	5.1773	0.333	0.333	0.333	0.333	0.333	0.333	0.333	0.333	0.333	0.333	0.333	0.333	0.333	0.333	0.333	0.333	0.333	0.333	0.333	6.327	1.5019	2.5982	20	244	0.0925791812930932	0	1
"245"	20	63	4	4	6.8	1	6	1	1	1.885	2.2812	0.2892	4.2104	13.3684	3.5715	8.6403	9.7642	-2.403	8.8173	12.8542	15.6671	3.0891	8.1745	0.3361	13.3675	9.7258	5.5193	3.1578	8.027	7.1058	0.333	0.333	0.333	0.333	0.333	0.333	0.333	0.333	0.333	0.333	0.333	0.333	0.333	0.333	0.333	0.333	0.333	0.333	0.333	6.327	1.4927	3.3853	20	245	0.633927820899974	1	0
"246"	20	40	4	1	1.7	0	6	1	1	1.849	1.5536	4.1632	4.9138	-4.8651	3.165	8.6781	11.9261	3.7038	-2.8417	-0.1923	4.546	1.9486	-2.516	1.8716	-3.9713	-0.9708	2.0705	-1.0816	-6.931	9.9157	0.3532	0.2797	0.3959	0.2575	0.4833	0.3203	0.3945	0.2777	0.2053	0.3507	0.2931	0.3777	0.4374	0.2741	0.3929	0.2805	0.3543	0.2008	0.392	6.3209	1.7201	3.5831	20	246	0.614644952404988	1	0
"247"	20	47	4	1	1.7	1	6	1	1	1.849	5.7924	-2.0861	-2.15	12.5215	0.1278	-3.9654	9.0168	4.804	0.9396	-1.0512	-0.7834	11.1226	-2.5311	3.234	-1.7627	4.6393	2.4524	0.6691	-4.1088	-3.3479	0.333	0.333	0.333	0.333	0.333	0.333	0.333	0.333	0.333	0.333	0.333	0.333	0.333	0.333	0.333	0.333	0.333	0.333	0.333	6.327	1.6162	3.4827	20	247	0.614644952404988	1	0
"248"	20	48	4	2	3.4	1	6	1	1	1.791	7.536	10.2924	3.6298	-1.9207	8.1846	-0.4471	1.9267	4.4663	2.4318	-1.3781	4.1821	6.6244	-2.5154	-9.6063	10.727	9.0588	3.9394	6.7653	3.29	-0.0415	0.333	0.333	0.333	0.333	0.333	0.333	0.333	0.333	0.333	0.333	0.333	0.333	0.333	0.333	0.333	0.333	0.333	0.333	0.333	6.327	1.5928	3.3914	20	248	0.582774123078575	1	0
"249"	20	52	4	-1	-1.7	0	5	-1	1	1.968	0.6368	4.9551	-5.6804	-3.9727	0.2901	-0.2979	-14.4476	-3.2505	-7.9764	-2.7969	-7.4944	1.409	3.2022	-1.1146	0.8114	2.9506	7.5662	-4.6997	-4.8211	-0.6301	0.43	0.3841	0.2728	0.5274	0.3812	0.3198	0.2313	0.3554	0.4727	0.3914	0.2151	0.305	0.3617	0.2982	0.2078	0.3775	0.2604	0.2952	0.249	6.336	1.4843	3.4692	20	249	0.677017798630062	0	1
"250"	20	7	4	4	6.8	1	4	1	1	1.025	11.1774	5.8321	3.4336	8.3599	15.3429	15.7924	8.3752	4.6825	-2.1965	10.3746	-2.9161	6.5785	2.168	1.2885	8.8035	12.3537	8.5459	3.5193	6.3922	7.8444	0.333	0.333	0.333	0.333	0.333	0.333	0.333	0.333	0.333	0.333	0.333	0.333	0.333	0.333	0.333	0.333	0.333	0.333	0.333	6.327	1.6555	2.6926	20	250	0.0246926125903714	1	0
"251"	20	55	4	2	3.4	0	4	-1	0	1.207	-0.3589	2.3477	-2.4512	9.7283	13.5983	0.1833	2.6021	3.235	-0.0155	2.3584	11.0231	12.9362	-2.4581	0.4718	1.0584	-4.382	1.405	5.5301	5.1854	4.7433	0.3352	0.3095	0.3465	0.2713	0.3163	0.4106	0.2461	0.2024	0.4586	0.3466	0.4965	0.4364	0.2665	0.4056	0.2506	0.2199	0.3988	0.3341	0.2678	6.3194	1.4354	2.6576	20	251	0.188137942115395	0	1
"252"	20	15	4	-4	-6.8	1	3	-1	1	0.859	-10.5358	-9.3474	-2.2985	-12.6873	0.1154	-12.178	-8.0498	-5.8848	-7.5253	-6.5455	-3.7364	-9.6202	-5.4985	-5.3738	-12.3798	-5.5853	0.8331	5.4297	-11.7324	-12.7687	0.333	0.333	0.333	0.333	0.333	0.333	0.333	0.333	0.333	0.333	0.333	0.333	0.333	0.333	0.333	0.333	0.333	0.333	0.333	6.327	1.7188	2.5928	20	252	-0.151986356997882	0	1
"253"	20	65	4	-2	-3.4	0	4	-1	1	0.995	-5.1015	-2.8237	-3.4126	-8.5736	-4.3955	2.563	-1.2294	1.0874	-1.5175	1.0917	-4.9934	-11.0254	-5.6519	8.7469	1.1759	-6.7546	-6.7369	0.6562	-9.3631	-10.4031	0.2663	0.2408	0.444	0.4985	0.2928	0.2544	0.329	0.522	0.3106	0.2666	0.3274	0.2837	0.2224	0.37	0.4127	0.2916	0.2373	0.4498	0.3048	6.3247	1.6177	2.6295	20	253	-0.00501254182354429	0	1
"254"	20	30	4	-2	-3.4	1	5	-1	1	1.404	-2.7788	3.4772	-7.8801	-4.4799	-3.7803	-1.9427	4.4618	1.8399	-7.9363	-2.4828	-1.6163	-1.0408	1.4071	-6.5438	-13.6119	-7.059	0.7994	-5.9208	0.9334	-13.5742	0.333	0.333	0.333	0.333	0.333	0.333	0.333	0.333	0.333	0.333	0.333	0.333	0.333	0.333	0.333	0.333	0.333	0.333	0.333	6.327	1.5431	2.9549	20	254	0.339325305603619	0	1
"255"	20	58	4	-2	-3.4	1	4	-1	1	1.148	-4.7768	-11.7906	-11.0825	-4.4801	-2.4687	3.1534	-11.8317	2.419	-1.5082	-11.6231	0.308	4.0157	-3.9169	-4.8102	-0.4235	-4.567	-1.0194	1.8271	0.1025	-4.3136	0.333	0.333	0.333	0.333	0.333	0.333	0.333	0.333	0.333	0.333	0.333	0.333	0.333	0.333	0.333	0.333	0.333	0.333	0.333	6.327	1.5558	2.7156	20	255	0.138021297897375	0	1
"256"	20	14	4	4	6.8	0	5	1	1	1.53	6.7393	4.8208	6.2684	4.0396	16.0331	3.9257	4.9514	1.0871	9.3741	9.9609	0.4704	9.9107	7.1991	11.0046	3.004	2.9636	-0.7224	10.4486	18.7748	5.864	0.4846	0.2396	0.3254	0.2988	0.3739	0.2358	0.3769	0.2523	0.3967	0.2993	0.3897	0.435	0.2329	0.2795	0.4609	0.3658	0.2244	0.2975	0.3653	6.3342	1.7082	3.2478	20	256	0.425267735404344	1	0
"257"	20	26	4	1	1.7	0	4	1	1	1.333	0.8601	-4.8104	6.7289	-6.5806	0.2608	-7.3266	0.8705	8.393	6.6006	-0.9918	1.1363	7.2156	7.5716	2.0852	7.8955	6.4993	5.3658	-2.6129	-4.1192	0.0296	0.2774	0.4745	0.5242	0.4777	0.3138	0.2401	0.3867	0.5056	0.2173	0.3198	0.2133	0.4804	0.218	0.2731	0.3656	0.2505	0.208	0.3817	0.2016	6.3294	1.5435	2.8841	20	257	0.287432041196572	1	0
"258"	20	24	4	-1	-1.7	0	5	-1	1	1.659	-4.4369	-10.1316	-0.3404	1.2753	0.729	4.748	-4.4525	-5.36	5.1638	-7.0091	-12.8402	-2.1586	0.3436	5.9661	-4.5327	-4.9087	3.6848	-3.4461	1.5021	0.5947	0.4552	0.3671	0.4617	0.278	0.3728	0.3394	0.2282	0.3315	0.5041	0.2597	0.4424	0.2118	0.385	0.3296	0.2208	0.3002	0.2739	0.3407	0.2186	6.3208	1.4198	3.0758	20	258	0.506215011208307	0	1
"259"	20	19	4	1	1.7	1	8	1	1	2.494	-1.419	0.0791	-2.0319	7.26	9.5468	8.5756	2.3369	2.827	-4.3809	0.8294	0.3112	-4.4816	1.6956	-1.0547	-9.4461	3.1784	5.2766	4.4031	10.0661	-0.923	0.333	0.333	0.333	0.333	0.333	0.333	0.333	0.333	0.333	0.333	0.333	0.333	0.333	0.333	0.333	0.333	0.333	0.333	0.333	6.327	1.479	3.9781	20	259	0.913887847257845	1	0
"260"	20	11	4	0	0	0	9	1	0	2.649	-2.6687	-2.3219	8.0787	-1.9066	1.3988	9.9738	1.9603	-3.0682	-2.1706	2.2952	-0.5748	5.9384	-0.2634	-7.7022	-8.8492	5.1186	0.167	1.7208	2.4539	-8.2028	0.2506	0.3066	0.3858	0.2242	0.4456	0.3135	0.4057	0.3009	0.3881	0.2188	0.2723	0.2255	0.2777	0.4214	0.33	0.5107	0.3506	0.4363	0.257	6.3214	1.5323	4.2003	20	260	0.974182210289933	1	0
"261"	20	44	4	-2	-3.4	1	6	-1	1	1.758	1.3209	-8.7183	-5.9006	0.7948	-13.0383	-6.702	-2.5797	-4.0895	-1.4935	-8.3021	3.1683	-9.559	4.8804	-9.6544	1.7246	-3.3619	-2.9759	1.6489	0.0525	-5.4454	0.333	0.333	0.333	0.333	0.333	0.333	0.333	0.333	0.333	0.333	0.333	0.333	0.333	0.333	0.333	0.333	0.333	0.333	0.333	6.327	1.662	3.4423	20	261	0.564176799262985	0	1
"262"	20	41	4	2	3.4	0	18	-1	0	5.815	6.5227	-1.2498	1.2444	14.13	4.9982	5.9109	-3.0958	-3.3716	0.4336	9.8477	9.0723	1.5221	6.3333	0.9378	-1.3894	-3.9979	-0.0587	4.6664	6.758	8.3982	0.3399	0.2703	0.3382	0.4221	0.3841	0.2863	0.2129	0.3327	0.4836	0.3223	0.283	0.3362	0.2853	0.2166	0.2427	0.4464	0.2502	0.4173	0.4574	6.3277	1.5133	7.3489	20	262	1.76044078597063	0	1
"263"	20	4	4	0	0	1	7	1	0	2.299	3.3809	1.9151	0.0932	4.8841	-0.6663	0.2965	2.333	-4.6951	-7.97	-0.0283	3.637	5.1741	7.4128	-1.4067	-1.0514	-8.176	-6.1143	9.5437	-1.4995	-7.3263	0.333	0.333	0.333	0.333	0.333	0.333	0.333	0.333	0.333	0.333	0.333	0.333	0.333	0.333	0.333	0.333	0.333	0.333	0.333	6.327	1.4619	3.7662	20	263	0.832474245781044	1	0
"264"	20	38	4	-1	-1.7	0	4	-1	1	1.102	-0.7059	-1.3734	-1.6682	1.4383	1.7101	0.2506	-12.3961	-8.9633	4.5545	-3.8864	-0.015	8.7482	-0.5739	-2.6144	-3.8445	-8.7031	-1.3799	-3.7057	4.5626	-4.7186	0.3259	0.2646	0.2268	0.3874	0.2061	0.4222	0.202	0.2992	0.4738	0.3832	0.3305	0.3953	0.2111	0.3709	0.5322	0.3007	0.5134	0.2101	0.2811	6.3367	1.4614	2.5694	20	264	0.0971267107307228	0	1
"265"	20	28	4	4	6.8	0	4	1	1	1.039	7.5562	7.9233	5.6426	-2.1833	10.1477	9.2439	5.4561	10.3514	13.7608	10.2694	-0.6001	2.6911	2.1701	8.4083	11.5834	3.2099	-0.4178	16.2298	10.7124	3.6473	0.2394	0.302	0.3846	0.2729	0.386	0.2609	0.4696	0.3103	0.2081	0.4483	0.2772	0.234	0.5319	0.3859	0.2109	0.3157	0.4064	0.4706	0.2149	6.3297	1.4643	2.506	20	265	0.0382587121170903	1	0
"266"	20	32	4	0	0	1	9	-1	1	2.989	0.375	2.8388	1.0089	1.041	7.4369	1.1421	-3.2904	-4.6205	3.1355	-9.5728	3.0979	-1.5094	6.0938	1.0578	-3.7088	-12.1854	0.5115	2.1721	6.1654	-0.955	0.333	0.333	0.333	0.333	0.333	0.333	0.333	0.333	0.333	0.333	0.333	0.333	0.333	0.333	0.333	0.333	0.333	0.333	0.333	6.327	1.6305	4.6233	20	266	1.0949388833018	0	1
"267"	20	16	4	-2	-3.4	1	5	-1	1	1.625	-3.9464	7.5627	-1.0685	-4.5663	-9.5919	-8.1284	0.2029	0.476	-2.3832	-7.5775	-8.3387	-5.1369	-8.1786	-8.7713	-1.1459	-8.0093	6.9452	-5.4638	-3.9539	2.271	0.333	0.333	0.333	0.333	0.333	0.333	0.333	0.333	0.333	0.333	0.333	0.333	0.333	0.333	0.333	0.333	0.333	0.333	0.333	6.327	1.6435	3.2754	20	267	0.485507815781701	0	1
"268"	20	21	4	4	6.8	1	8	1	1	2.66	2.9485	17.0596	6.0702	15.3872	3.8736	4.9441	7.2295	10.8976	4.7969	6.913	7.1102	2.6057	3.8554	12.3846	0.416	8.2547	3.4504	-0.9281	14.2211	5.0616	0.333	0.333	0.333	0.333	0.333	0.333	0.333	0.333	0.333	0.333	0.333	0.333	0.333	0.333	0.333	0.333	0.333	0.333	0.333	6.327	1.685	4.3437	20	268	0.978326122793608	1	0
"269"	20	31	4	-1	-1.7	1	4	-1	1	1.173	-0.3839	-2.6886	2.3376	1.8618	8.3527	4.1308	-2.2661	-4.2524	-3.9739	-10.3952	-0.4223	-6.3736	-1.6291	2.2985	-1.0184	6.3965	-4.1646	-7.5937	-10.1205	-4.925	0.333	0.333	0.333	0.333	0.333	0.333	0.333	0.333	0.333	0.333	0.333	0.333	0.333	0.333	0.333	0.333	0.333	0.333	0.333	6.327	1.6943	2.8737	20	269	0.159564569671338	0	1
"270"	20	23	4	-2	-3.4	0	4	-1	1	1.29	1.0015	-4.8311	-2.3277	0.833	-2.2408	0.2722	-10.7416	-1.3006	-11.811	1.0117	-1.1144	3.4934	1.8777	-15.3057	-8.0653	-5.3798	-7.3729	-3.4312	0.3657	-3.1172	0.4567	0.3359	0.3723	0.4812	0.2586	0.5176	0.2401	0.3461	0.2494	0.3126	0.2101	0.4861	0.2063	0.4097	0.3632	0.2045	0.2647	0.2263	0.3834	6.3249	1.5894	2.8744	20	270	0.254642218373581	0	1
"271"	20	2	4	-2	-3.4	1	3	-1	1	0.99	0.0847	-12.634	-9.0579	-6.7159	3.3716	2.195	-8.077	1.208	-1.2454	1.4024	-0.6012	1.6946	-2.3385	-5.7436	-8.5123	-3.1882	-8.9421	3.0269	-3.7059	-8.9609	0.333	0.333	0.333	0.333	0.333	0.333	0.333	0.333	0.333	0.333	0.333	0.333	0.333	0.333	0.333	0.333	0.333	0.333	0.333	6.327	1.7211	2.7071	20	271	-0.0100503358535015	0	1
"272"	20	45	4	-1	-1.7	1	4	-1	1	1.086	-3.9335	-8.7156	-10.7374	1.4336	4.0249	0.3844	-0.7824	1.9778	-3.8181	0.8319	-1.3856	-0.8709	3.9522	-0.6653	-15.0083	0.3196	1.6525	-3.6382	4.528	-5.3962	0.333	0.333	0.333	0.333	0.333	0.333	0.333	0.333	0.333	0.333	0.333	0.333	0.333	0.333	0.333	0.333	0.333	0.333	0.333	6.327	1.4798	2.5701	20	272	0.0825012215117438	0	1
"273"	20	56	4	4	6.8	0	4	1	1	1.364	8.1893	9.0957	14.4608	3.1995	11.4613	11.0009	8.5237	3.1573	11.7873	17.3321	0.6733	4.6361	4.3398	-0.5043	11.2488	3.1298	1.1229	1.6948	5.9541	5.4635	0.377	0.3481	0.2234	0.4545	0.2463	0.4153	0.2629	0.3938	0.3231	0.2327	0.2916	0.4176	0.232	0.2647	0.5143	0.4045	0.2007	0.4667	0.2527	6.3221	1.54	2.915	20	273	0.31042155942127	1	0
"274"	20	67	4	0	0	0	4	-1	0	1.29	2.108	-3.537	-7.751	-0.4019	-0.1853	2.6835	-12.3949	5.3189	-4.4808	6.1444	2.6086	4.2654	-3.8609	6.0914	3.3134	-4.6195	5.232	-2.3266	-1.249	3.9246	0.3929	0.3045	0.2405	0.3935	0.4617	0.2785	0.2527	0.2255	0.3338	0.2934	0.4427	0.208	0.4635	0.4109	0.3806	0.4113	0.2645	0.3325	0.2438	6.3348	1.6127	2.9237	20	274	0.254642218373581	0	1
"275"	20	8	4	-4	-6.8	0	3	-1	1	0.756	-7.5456	-14.2972	-6.8574	2.6802	-10.6289	0.1713	-2.0898	-15.294	-12.1238	-5.1725	-5.4938	-5.5051	-7.5304	-4.9308	-5.356	-4.3776	-4.0278	-1.6731	-13.9875	-12.1379	0.2438	0.5064	0.3293	0.2713	0.3569	0.322	0.2848	0.2173	0.4213	0.3429	0.4514	0.2176	0.3772	0.3419	0.3838	0.2573	0.3548	0.2254	0.4141	6.3196	1.635	2.4067	20	275	-0.279713902802604	0	1
"276"	20	27	4	2	3.4	0	6	-1	0	1.947	1.8183	2.4285	6.1683	1.1994	-2.793	2.9862	-7.3272	3.5722	5.7121	2.4299	8.0181	3.8985	2.7474	9.1021	6.9257	12.3981	7.4771	-8.0777	2.566	5.4403	0.4457	0.2515	0.3717	0.3053	0.5008	0.4055	0.3109	0.3763	0.2307	0.2002	0.303	0.2235	0.3664	0.2486	0.4563	0.2434	0.2741	0.3326	0.4793	6.3258	1.603	3.5642	20	276	0.666289726390063	0	1
"277"	20	51	4	-2	-3.4	0	4	-1	1	1.181	-2.4316	-3.1972	-2.3504	-8.5701	-0.2242	6.821	-5.3644	4.7564	-0.1067	-3.3323	-9.3046	-12.6035	1.9323	-7.2384	-2.0805	-7.7426	-8.8246	-7.0951	-0.4424	-0.4921	0.275	0.4302	0.2867	0.4357	0.4015	0.21	0.5304	0.2253	0.2686	0.3336	0.2871	0.2577	0.2051	0.4012	0.2871	0.2573	0.4997	0.3496	0.3892	6.331	1.4133	2.5981	20	277	0.166361537215225	0	1
"278"	20	25	4	0	0	0	7	-1	0	2.173	1.0072	3.7386	2.7022	-6.9989	9.3685	-5.3012	4.8065	-5.7768	-0.3246	1.8243	-4.4222	1.831	3.3662	-4.6847	-3.882	-0.2499	-2.2208	-3.3374	-2.5487	11.4457	0.3263	0.3894	0.2369	0.372	0.3093	0.3505	0.4892	0.2057	0.4287	0.5138	0.3545	0.3242	0.2313	0.2786	0.2425	0.3723	0.3095	0.2358	0.3504	6.3209	1.5202	3.7072	20	278	0.776108701274293	0	1
"279"	20	61	4	1	1.7	1	8	1	1	2.458	4.5849	1.5553	0.593	-5.6302	3.5205	8.7585	3.4125	-7.699	2.0433	-1.6959	-8.1258	5.643	7.4314	6.2565	4.6135	3.8404	-4.8842	0.595	6.398	1.4587	0.333	0.333	0.333	0.333	0.333	0.333	0.333	0.333	0.333	0.333	0.333	0.333	0.333	0.333	0.333	0.333	0.333	0.333	0.333	6.327	1.4103	3.875	20	279	0.899348011143843	1	0
